timestamp,ppg,eda,acc_x,acc_y,acc_z
0.0,500.0,0.15,0.0035837766107381925,0.013855326241300186,0.9949620581758712
0.01000667111407605,507.5376961543239,0.15031436677336799,0.0025070810193502445,-0.027882046329872873,0.9744564490548596
0.0200133422281521,515.0325044778592,0.15062872111951,-0.021345551953855155,-0.010826469726592005,0.990756646946428
0.030020013342228154,522.4417811621279,0.1509430506116913,-0.027865082525740447,0.01369430226635205,0.9686638802564868
0.0400266844563042,529.7233690548388,0.15125734282415965,0.02745979974451456,0.04758440649214443,1.005657336921265
0.05003335557038025,536.8358375247991,0.15157158533263654,-0.005104916071734739,-0.0013134055145894627,0.9356111622748213
0.06004002668445631,543.7387181930794,0.1518857657148083,-0.023373282311419174,-0.011756473133676542,0.9934118711020765
0.07004669779853236,550.3927351891757,0.15219987155081716,0.05148872357716004,-0.007463760839398294,0.9836825023698574
0.0800533689126084,556.7600286220618,0.15251389042375224,0.020951201359479043,-0.04165355827974092,0.9770252360835436
0.09006004002668445,562.8043699946292,0.15282780992014042,0.0011644345816664734,0.002311042475015975,0.9861925552532187
0.1000667111407605,568.4913683358561,0.15314161763043696,-0.04212285972136137,0.02093282807273151,0.9808626182234161
0.11007338225483655,573.788665877857,0.15345530114951625,-0.037321778297981785,-0.0008565912792010881,0.9782428430747631
0.12008005336891261,578.6661221644547,0.15376884807716193,0.029797019067465208,0.005663538844510042,0.998653899482584
0.13008672448298866,583.0959855437363,0.15408224601855738,0.024548084011892728,-0.0014956487486573614,0.9825016935649591
0.1400933955970647,587.0530510688407,0.15439548258477548,-0.007578942009897096,-0.023716783205050686,0.9883181813938274
0.15010006671114076,590.5148039085532,0.15470854539326842,0.0029621513524135147,0.007785202508982025,0.955981849928025
0.1601067378252168,593.4615474517369,0.15502142206835723,-0.014881738485403768,-0.01761299168844122,1.0078155653738627
0.17011340893929286,595.8765153767107,0.15533410024172095,-6.163015375994471e-06,-0.008461849754000045,1.0073848362528488
0.1801200800533689,597.745967047927,0.1556465675528856,-0.012302515561119658,-0.0010205735062884169,1.0024394160866108
0.19012675116744496,599.059265697161,0.15595881164971281,0.02833175285923966,-0.021861413999207033,1.0205675835607078
0.200133422281521,599.808938944379,0.15627082018888808,-0.015209695865606141,0.039680821649293735,0.9868827700266991
0.21014009339559706,599.9907213139348,0.15658258083640872,0.002613411619374639,-0.034920426406140355,0.9678404103306769
0.2201467645096731,599.6035785041872,0.15689408126807142,0.02538734929221158,-0.007785976442462995,0.9766461032620583
0.23015343562374915,598.6497132724476,0.15720530916995948,0.0028279498642859173,-0.028339413608102566,1.005619687820647
0.24016010673782523,597.1345529017763,0.15751625223892962,-0.00985769207266439,-0.020789110549374747,0.9987807336373409
0.2501667778519013,595.066718320938,0.1578268981830982,0.0078043285651251066,-0.03836349411737853,0.9634168773494369
0.2601734489659773,592.4579750532153,0.15813723472232727,0.01201192600582624,0.024348243234584045,0.9788502115524731
0.2701801200800534,589.3231662731732,0.15844724958870993,0.014260548584235986,0.021899259779051633,0.9722588927422416
0.2801867911941294,585.6801283522656,0.1587569305270553,0.017089384529117294,-0.005547010370477334,0.967518525800059
0.2901934623082055,581.5495893738096,0.1590662652953731,0.023414986690292933,0.005946709591596784,0.9773758589506073
0.3002001334222815,576.955051194758,0.15937524166535735,0.008772873389678705,-0.013177747509582699,0.9489117152656656
0.31020680453635757,571.9226557253103,0.15968384742287003,0.0004293130744694502,0.02635256107532133,1.0065449074858412
0.3202134756504336,566.4810361872007,0.15999207036842375,-0.008410887834905189,0.019285960279476884,1.0185638430696073
0.33022014676450967,560.6611541969748,0.160299898317664,0.03893203613508665,0.01523963787227975,1.0119603736568246
0.3402268178785857,554.4961236012107,0.16060731910185094,-0.011271167482747759,0.0016815889602027796,0.9901793269390543
0.35023348899266177,548.0210220660259,0.16091432056834032,-0.021618946836817945,0.010922964603378268,0.9926657188105206
0.3602401601067378,541.2726914928838,0.16122089058106392,-0.006408272300890071,0.020955523832843617,0.9906395297366486
0.37024683122081387,534.2895283962898,0.16152701702100936,0.041070419003086694,-0.014893292351569873,0.9931495748986751
0.3802535023348899,527.111265436081,0.16183268778669904,-0.006925702565097226,0.022666966553781944,0.9657190981937306
0.39026017344896596,519.7787453473439,0.16213789079466873,0.03262250745199403,-0.014095388140895731,0.9561023334856922
0.400266844563042,512.3336885542478,0.16244261397994497,0.014586206338132962,0.0054006963395825626,0.9909734704828272
0.41027351567711806,504.8184557900218,0.1627468452965223,0.03126344851115857,0.0003181458060252907,0.9896704397213194
0.4202801867911941,497.27580707371254,0.16305057271783926,0.009945923906432409,0.006609207841863152,0.9468525811608222
0.43028685790527016,489.7486584150954,0.1633537842372538,-0.025235039490745802,-0.020050501421460868,0.963987387849243
0.4402935290193462,482.27983763203173,0.16365646786851806,0.005249400574237797,-0.029522550583951094,0.9643874912377981
0.45030020013342226,474.9118406696187,0.16395861164625208,0.020030201712278584,0.039393520044413904,0.9848994427282852
0.4603068712474983,467.68658980762245,0.16426020362641688,-0.0056899917093858185,0.000658602945645222,1.0087204420437517
0.47031354236157435,460.6451951319407,0.16456123188678648,-0.008718022595010245,0.002596810182614619,0.9797842959801926
0.48032021347565046,453.8277206272687,0.1648616845274194,0.009079229491065384,0.005501391120332961,0.9972805656427192
0.4903268845897265,447.27295622185204,0.1651615496711289,0.02522350835003274,-0.010646646950981964,1.02207797083347
0.5003335557038026,441.0181970813383,0.1654608154639526,0.004581874097832913,0.028777169169665315,0.9969859042550214
0.5103402268178786,435.0990314075003,0.16575947007562108,0.01753144881254841,0.0020394299117325572,0.993104273051091
0.5203468979319547,429.54913794920657,0.16605750170002542,0.0037879925427683303,0.012563757102470078,0.9228926227394025
0.5303535690460307,424.40009437775876,0.16635489855568406,0.006391133987356641,0.022731618554568747,0.9507263458394154
0.5403602401601068,419.68119761689775,0.16665164888620845,-0.00814966121216228,0.0219058793344936,0.9279637244001412
0.5503669112741828,415.4192971497607,0.16694774096076787,0.005873317962155261,0.003540452799743719,0.9766891444651982
0.5603735823882589,411.63864225123615,0.16724316307455295,-0.018787457149727377,0.026033332112799696,0.9966404094648891
0.5703802535023349,408.36074401493113,0.16753790354923873,0.0059568936280101625,-0.010338780259084919,0.9752928856354093
0.580386924616411,405.604252959787,0.16783195073344592,-0.002187535840413298,-0.016185831186864702,0.9610077752412268
0.590393595730487,403.3848529127349,0.16812529300320178,0.013347630863073999,-0.007729458568622329,0.9871264011018224
0.600400266844563,401.7151717711749,0.16841791876239956,0.02916958390045281,0.049191717126997186,0.9584603041351121
0.6104069379586391,400.60470965302153,0.16870981644325678,0.02804930949136344,-0.02830993955660776,0.9689702768457791
0.6204136090727151,400.0597848431254,0.16900097450677265,-0.009594697935264969,0.006738004067723775,0.9475510039300483
0.6304202801867912,400.0834978436241,0.16929138144318423,0.04211324395093627,-0.007641796119798799,0.9971621060047655
0.6404269513008672,400.67571373276814,0.16958102577242126,-0.02308405499624845,0.02162467088105514,0.9590423607479368
0.6504336224149433,401.8330629325958,0.16986989604456015,0.0075040081702875275,-0.0009659274500742692,0.9655844959384061
0.6604402935290193,403.54896038108944,0.1701579808402766,0.010708194340725624,-0.015135904298300551,1.0249900580552191
0.6704469646430954,405.81364299972824,0.17044526877129684,0.025079875181024655,0.01957230935943249,0.9783887128200996
0.6804536357571714,408.61422524325417,0.17073174848084804,0.0033543164787937286,0.012171074330928127,0.9197248943581393
0.6904603068712475,411.93477241558617,0.17101740864410708,-0.00992044948717482,-0.0031235195836788305,1.00809904031662
0.7004669779853235,415.7563913347313,0.17130223796864838,0.005972629729595395,-0.013719947367124556,0.9560954218401567
0.7104736490993996,420.05733783082815,0.17158622519489017,0.025951263057705596,-0.02394187861369025,0.9513718152539461
0.7204803202134756,424.8131404656841,0.1718693590965397,0.03008931136678234,-0.00813290059810375,0.9898920914197222
0.7304869913275517,429.9967397698683,0.1721516284810369,-0.010110727097013857,0.00499287947308528,0.9865064781861492
0.7404936624416277,435.5786422051323,0.17243302218999698,0.014598570721287956,0.023087080156302116,0.9966505033162282
0.7505003335557038,441.527087976146,0.17271352909965143,0.0069340798183841505,0.002491073375198835,0.9801566320453127
0.7605070046697798,447.80823173673735,0.1729931381212878,0.01036254793851735,-0.003103847216115077,0.9927955646911047
0.7705136757838559,454.3863351624572,0.173271838201688,-0.01625249087910499,0.0075550854139921665,0.9842142795099678
0.7805203468979319,461.22397029377316,0.17354961832356533,0.009926254068451682,0.005532514428551238,0.919883862016797
0.790527018012008,468.2822324929151,0.1738264675059999,0.013890539771138827,-0.021945242443739202,0.9691277907379942
0.800533689126084,475.52096180269444,0.17410237480487276,-0.02833091684014169,-0.02135590214694143,1.0014371461316556
0.8105403602401601,482.89897144781463,0.17437732931329858,0.034221555317835196,-0.019952751858901302,0.9733849648146415
0.8205470313542361,490.3742821785504,0.17465132016205673,-0.0020673399749151894,-0.011126317741093364,0.9680087695131503
0.8305537024683122,497.90436112343184,0.17492433652002104,0.06182742233543765,-0.025256318421344414,0.9898784577006866
0.8405603735823882,505.4463637919141,0.17519636759458787,0.0009092398110625126,-0.001025941873152195,0.98543513023355
0.8505670446964643,512.9573778500919,0.17546740263210278,-0.0017465372022217433,-0.0020566562377196704,0.9894924812165903
0.8605737158105403,520.3946672824263,0.17573743091828573,0.0016209917278012342,0.012981957493362712,0.968687336932287
0.8705803869246164,527.7159155502605,0.17600644177865446,-0.006726414115924493,-0.00507380744524094,0.9674179740921165
0.8805870580386924,534.8794663636031,0.17627442457894657,0.01108663837376316,-0.02065439866712551,1.005883938157219
0.8905937291527685,541.8445606962426,0.17654136872553994,-0.012212344970970554,-0.012145705636548473,0.9761053834800554
0.9006004002668445,548.5715686956288,0.17680726366587132,-0.0006801924657865423,-0.023647196268382152,0.960775057728752
0.9106070713809206,555.0222151680044,0.17707209888885375,-0.005383311825385962,0.005788973484933529,0.9642320235349758
0.9206137424949966,561.1597973558264,0.17733586392529183,-0.013577381083215765,-0.013529842560558059,0.9895072550892752
0.9306204136090727,566.9493937683725,0.17759854834829575,-0.02301931977414439,-0.013186351932449025,0.985831316066167
0.9406270847231487,572.3580628773306,0.17786014177369336,0.0028889185769313693,0.004686366776420081,0.9968907267214608
0.9506337558372248,577.3550305468391,0.1781206338604407,0.017653974301848178,-0.0070731506471665845,1.021692451103095
0.9606404269513009,581.9118651315416,0.1783800143110309,-0.011726367590415142,-0.0083046910832234,0.9667064140288576
0.970647098065377,586.0026392463857,0.178638272871901,-0.050098885136838314,0.021265431347329878,0.9682655418579962
0.980653769179453,589.6040772877334,0.1788953993338376,-0.011776540975583717,-0.009971657705685285,0.9927671725461789
0.9906604402935291,592.6956878664189,0.17915138353238017,0.012583611555347183,-0.008505488500441125,0.9899729108923149
1.0006671114076051,595.2598803992389,0.17940621534822299,0.006345528583490213,-0.030365481697471608,0.947739961137505
1.0106737825216812,597.2820651954969,0.17965988470761518,-0.034769978464382685,-0.032982616921962776,0.9749053673406207
1.0206804536357572,598.7507364691292,0.1799123815827589,-0.011617284661723222,0.01270396623582586,0.9842573283629378
1.0306871247498333,599.6575378040931,0.18016369599220572,-0.005139224537436636,-0.023930619102128094,0.948678635338233
1.0406937958639093,599.9973097005341,0.18041381800125128,0.009911523466454655,0.02309747998958069,0.9774386709552173
1.0507004669779854,599.768118931203,0.18066273772232794,0.008558120716585616,-0.007212865346474565,0.9949206821595661
1.0607071380920614,598.9712695410935,0.18091044531539568,0.028458108239469145,-0.04890877401968142,0.9765154348584687
1.0707138092061375,597.6112954277131,0.18115693098833113,0.02253831780413507,-0.00940328804644074,0.9747564681943722
1.0807204803202135,595.6959345442052,0.1814021849973146,-0.015545419325617621,-0.005876190744987092,1.0107323678405158
1.0907271514342896,593.2360848721002,0.18164619764721524,0.013964879516269584,0.021516017715381825,1.0309355756593757
1.1007338225483656,590.2457424142007,0.18188895929197432,0.013470019013761615,-0.011362759529398126,0.9774027118615267
1.1107404936624417,586.741921560409,0.1821304603349867,0.03467177807857669,-0.015750774692785227,0.9666829878988731
1.1207471647765177,582.744558279596,0.18237069122947994,0.04447175485116297,0.019158045574561463,1.0191568235599586
1.1307538358905938,578.2763966883297,0.18260964247889183,0.02195633275013961,0.007186975092484294,0.9895792791122323
1.1407605070046698,573.3628596418617,0.18284730463724583,-0.021547406905072758,0.03616083431217981,1.0195542082382814
1.1507671781187458,568.0319040836806,0.18308366830952436,-0.005086900568357496,0.002824196028032771,0.9522182320142437
1.160773849232822,562.3138619766623,0.1833187241520403,0.0057858101120772925,0.022800180719346197,0.9817390171758102
1.170780520346898,556.2412677208814,0.18355246287280638,-0.010999973242335053,-0.0014048181824354944,0.9683932249790801
1.180787191460974,549.8486730400421,0.18378487523190234,-0.02158011960065758,0.010205195477148985,0.9525602424583848
1.19079386257505,543.1724503897804,0.18401595204184032,-0.04214084905478492,-0.0022783450001848406,0.9968877853845399
1.200800533689126,536.2505860064035,0.18424568416792808,0.015429491124886409,-0.005691320568797488,1.0133907827256783
1.2108072048032021,529.122463773573,0.18447406252862997,-0.007443664932985781,-0.013881141014211349,0.9772003816056382
1.2208138759172782,521.8286411366806,0.18470107809592606,0.009505069083621719,0.008304353315185779,0.9808788436786624
1.2308205470313542,514.4106183399191,0.184926721895669,0.01698997259125639,-0.023364437157905465,0.9655141444807969
1.2408272181454303,506.9106022990325,0.18515098500793867,-0.027192230888888193,-0.006288343317861301,0.9878315316793902
1.2508338892595063,499.3712664532641,0.18537385856739494,0.03388875380028745,-0.0036603533721522585,0.976120971937465
1.2608405603735824,491.83550796288523,0.18559533376362805,0.0032172056897304185,0.028981419146446478,0.9858027313888428
1.2708472314876584,484.34620363380355,0.1858154018415069,-0.0014513986469448699,0.03492015125855493,0.9505081401411763
1.2808539026017345,476.94596595798134,0.18603405410152515,-0.009270236119869223,-0.02677157788635265,0.9967028210440433
1.2908605737158105,469.6769006577422,0.18625128190014512,0.005045755322202371,0.04446648115776847,0.961020356298244
1.3008672448298866,462.5803671134865,0.1864670766501395,-0.0016756541844791277,0.011572157519736082,0.9832835811985369
1.3108739159439626,455.69674303792624,0.18668142982093083,-0.003469629335290525,-0.011746904808335712,1.0163168921099632
1.3208805870580387,449.06519473579453,0.18689433293892857,0.052241995972596725,-0.0012893815491093472,0.9468840655533991
1.3308872581721147,442.723454256198,0.18710577758786429,0.010120420082998556,-0.003795843185651657,0.9801837199517501
1.3408939292861908,436.7076047055695,0.1873157554091242,-0.018794019109757167,-0.015421126496472122,0.9623985332818208
1.3509006004002668,431.05187494274014,0.18752425810207973,-0.011754860505638611,-0.0136046078357549,0.9657123404781358
1.3609072715143429,425.78844482427144,0.1877312774244155,0.0013130275453826573,0.04503693111176033,1.0127655140106637
1.370913942628419,420.9472621081612,0.18793680519245526,-0.024693989468049685,-0.009068390304899995,0.9897871873362
1.380920613742495,416.5558720576958,0.1881408332814853,0.005994405826884131,0.023053553633801203,0.9573949587011409
1.390927284856571,412.6392607149703,0.18834335362607577,-0.05029858951708358,0.009782056839521042,0.9580811713139366
1.400933955970647,409.2197127358121,0.18854435822039936,-0.006402331071643896,0.0020518569767405863,0.9380167243540471
1.4109406270847231,406.3166845949982,0.18874383911854792,0.018757722588053263,0.006833480653053703,0.9546207323898191
1.4209472981987992,403.9466938831993,0.18894178843484644,-0.023746056531450992,0.02448676151184192,0.9394794064967851
1.4309539693128752,402.1232253255274,0.18913819834416484,-0.009697845471007742,-0.026869420872993394,0.956987687484845
1.4409606404269513,400.85665405642,0.18933306108222736,0.0275040939087634,0.04444223775005563,0.9818967226811407
1.4509673115410273,400.1541865874102,0.1895263689459194,0.012954204105021965,-0.03143928207373986,0.9752682819536101
1.4609739826551034,400.01981980366423,0.18971811429359206,0.01137825252413081,0.0021367179369840626,0.9773977274547294
1.4709806537691794,400.45431822258456,0.1899082895453642,0.01646692589053646,-0.0011030280863973878,0.9696634264008048
1.4809873248832555,401.4552096438746,0.19009688718342216,0.016381712534000562,-0.041715509479611425,0.9646829410731745
1.4909939959973315,403.01679921581365,0.19028389975231685,-0.055065840942150175,-0.010942960581147914,1.0109117728916832
1.5010006671114076,405.1302018377091,0.19046931985925855,0.03126596564032202,-0.001486182620300477,0.9926943008497654
1.5110073382254836,407.7833927141618,0.1906531401744091,0.006903198688989841,-0.015481876488618285,1.0224903015882676
1.5210140093395597,410.96127577350353,0.19083535343117167,0.03683549911755047,-0.006741383400635491,1.0144713453514933
1.5310206804536357,414.6457695611195,0.191015952426478,-0.023990126881937836,-0.006769573834466242,0.9608465941486908
1.5410273515677118,418.81591011894227,0.19119493002107324,-0.00287809987957252,-0.008994629606691973,0.9870361980595124
1.5510340226817878,423.44797026575526,0.19137227913979798,-0.013630693380015749,0.00930724996323948,1.0045400955835473
1.5610406937958639,428.51559459962795,0.19154799277186818,-0.0006887328402657623,-0.017342979568247346,0.9665061555881466
1.57104736490994,433.98994945434697,0.1917220639711521,-0.010921789735232182,0.008681931212482393,1.015134267280763
1.581054036024016,439.83988695662583,0.19189448585644497,0.011536084821487533,0.012440835333691572,0.9669195883748392
1.591060707138092,446.03212225064357,0.1920652516117411,-0.02547730809266389,-0.00023391107801574537,0.9439422127623573
1.601067378252168,452.53142288154163,0.1922343544865031,0.01958157162884416,-0.03468657183737196,0.9637635884738219
1.611074049366244,459.3008092603326,0.19240178779592904,0.009758204425978214,0.006036409345159088,0.9734656681332209
1.6210807204803201,466.30176506961453,0.19256754492121642,-0.016722613135426515,-0.010750831013343549,0.969626248689056
1.6310873915943962,473.49445641293477,0.19273161930982396,-0.01781279992718282,0.03003281563540605,0.9712317025062318
1.6410940627084722,480.8379584608848,0.19289400447573068,-0.03965838784795105,-0.009785492544670234,0.9605164377282531
1.6511007338225483,488.2904883043665,0.1930546939996921,-0.01539037330942185,0.031557894245522355,0.9664943592046656
1.6611074049366243,495.8096426901402,0.1932136815294942,-0.04613286287355996,0.021094226341630763,0.9834190319362669
1.6711140760507004,503.3526392859962,0.19337096078020446,0.017355429397951684,0.03599833889462973,0.9837312241751149
1.6811207471647764,510.8765601028014,0.19352652553442032,0.00686526990243693,0.009326861363105336,0.9644660993496235
1.6911274182788525,518.3385956884033,0.19368036964251487,0.004312795085203638,-0.017059987947133367,0.9117128554698528
1.7011340893929285,525.6962887039838,0.19383248702288006,-0.0391076634255922,-0.005954755574701372,0.9895570875494163
1.7111407605070046,532.9077754969642,0.1939828716621671,-0.002906457228516839,0.025265614427888272,0.949941532689161
1.7211474316210806,539.9320242959682,0.1941315176155241,-0.0077648470603612655,0.003224335136478177,0.9553509317456357
1.7311541027351567,546.7290686725618,0.1942784190068312,0.010728928160822066,-0.009329258375719162,0.9698976566791709
1.7411607738492327,553.260234941428,0.19442357002893274,-0.01608006942100954,-0.014085126309385985,0.9711719802660245
1.7511674449633088,559.4883622051184,0.19456696494386683,0.009490131517726359,0.02946091993290187,0.9773257543702483
1.7611741160773848,565.378013791373,0.19470859808309224,0.02970115859912349,0.033182377572899144,0.9654564010293967
1.7711807871914609,570.8956788799807,0.19484846384771248,-0.003279353125769608,0.01762633151729954,0.9663409697259772
1.781187458305537,576.009963171964,0.19498655670869713,-0.017507885893342408,-0.03397360838057353,0.9960369931912281
1.791194129419613,580.6917675162263,0.1951228712071003,-0.0411129758683507,0.039871754536699625,0.9607012512065822
1.801200800533689,584.9144534773101,0.1952574019542766,0.013620865914505986,0.00995432390236798,1.00568882686789
1.811207471647765,588.6539949022288,0.19539014363209398,0.028526870461026234,0.008091764347708063,0.985910002110731
1.8212141427618411,591.8891146239839,0.19552109099314413,-0.02402354291522941,-0.01802948279620466,0.9981560550176849
1.8312208138759172,594.601405523959,0.1956502388609498,-0.024823672851998324,-0.003581712373998202,0.9700006837621296
1.8412274849899932,596.7754352643701,0.1957775821301695,-0.03926732524030687,-0.032701603456531794,0.9546994702416567
1.8512341561040693,598.3988340948681,0.1959031157667992,-0.01947606469151747,0.00190804130296637,0.9923360522982311
1.8612408272181453,599.4623652336937,0.19602683480837155,-0.0009372732303225004,-0.03954895394090007,0.989910165541382
1.8712474983322214,599.9599774229313,0.19614873436415178,0.009375167854034801,0.01745922511808362,0.9729976100741919
1.8812541694462974,599.8888393588331,0.1962688096153313,0.011665424803856761,-0.009688554175524068,0.9827813174332218
1.8912608405603735,599.2493558013144,0.19638705581521798,-0.023724521726784024,0.03841923098138491,0.9843081513240084
1.9012675116744495,598.0451652709584,0.19650346828942386,0.021933332194288235,-0.0005131472787935739,0.9543601406178528
1.9112741827885256,596.2831193466352,0.19661804243605005,0.010048398991108865,-0.008992324118577692,0.9326776808058889
1.9212808539026018,593.9732436815284,0.19673077372586845,0.036087780731543964,0.03812720973729376,0.9793408267903523
1.9312875250166779,591.1286809593755,0.19684165770250092,-0.006124264211635878,-0.04002984677127891,1.0070147667979301
1.941294196130754,587.7656161154937,0.19695068998259546,-0.010317683955105437,-0.02059754648002292,0.9571562375480567
1.95130086724483,583.9031842480613,0.19705786625599936,0.018703296021820994,-0.013358765157803024,0.9624896654232047
1.961307538358906,579.5633617436258,0.19716318228592977,-0.026941555732256872,0.004918581987210296,0.9802391591924319
1.971314209472982,574.7708412363038,0.197266633909141,0.032765101928927926,0.046001455854368906,0.9717436525837782
1.9813208805870581,569.5528911121329,0.19736821703608923,-0.01423115373296705,0.027632848431571395,0.9959871729212819
1.9913275517011342,563.9392003579609,0.1974679276510941,-0.03343891567344192,-0.02734717363651407,1.0074377150037688
2.0013342228152102,557.9617096376502,0.1975657618124975,-0.006511175857322568,-0.04000455698924793,0.9825775264204565
2.0113408939292863,551.6544295567368,0.19766171565281931,-0.018512159899772885,-0.01000945086871087,0.9807893577139406
2.0213475650433623,545.0532471495751,0.19775578537891045,-0.010386417247835107,0.03250256277977993,0.9791547404037098
2.0313542361574384,538.1957216900188,0.19784796727210258,0.021553483266411422,0.03189786798267271,0.958515722011122
2.0413609072715144,531.120870987424,0.19793825768835538,0.017128693370723466,-0.009030944488291516,0.9662022794968875
2.0513675783855905,523.8689493839103,0.19802665305840034,-0.01956675753999273,0.017945618797218656,0.968635854809979
2.0613742494996665,516.4812187160196,0.19811314988788206,-0.016369076973015106,-0.028162625192742468,0.9795259744682612
2.0713809206137426,508.99971354395535,0.1981977447574963,0.005178969340410401,-0.02668923164389913,0.9832844142427944
2.0813875917278186,501.4670019841946,0.1982804343231251,-0.0019807807814687605,0.015285701510870227,0.9864543928131343
2.0913942628418947,493.9259435062804,0.1983612153159691,0.0016189818301384634,0.02759036766763626,0.9584728445476474
2.1014009339559707,486.4194450718822,0.1984400845426766,-0.014254038491553815,0.001989966856948427,0.9560238214661156
2.1114076050700468,478.99021700363375,0.19851703888546998,0.0156474231134596,-2.396791905558175e-05,0.967216589681235
2.121414276184123,471.68052997280637,0.1985920753022688,0.012609139623465165,0.015772229795653073,0.9638185997702549
2.131420947298199,464.53197448849903,0.1986651908268101,0.015441124960181771,0.00196753358460838,0.9685256772970946
2.141427618412275,457.58522425680485,0.19873638256876577,-0.009199206608513007,0.025704397361070032,1.0154279032613562
2.151434289526351,450.8798047563794,0.19880564771385653,0.0070273793938360855,0.009903573087713285,1.0084996542494513
2.161440960640427,444.4538683471766,0.19887298352396351,0.002775549131344955,0.02842002558347705,0.9747518070757137
2.171447631754503,438.34397719192276,0.1989383873372363,-0.02539524523715081,0.01329486472224363,0.9724284735759652
2.181454302868579,432.58489522546483,0.19900185656819813,-0.0002700133673740262,-0.02287698001173892,0.9785046709545435
2.191460973982655,427.2093903556374,0.1990633887078483,-0.04651019396339784,-0.0002595287928442814,1.005050328073807
2.201467645096731,422.2480480210868,0.1991229813237611,-0.0009421177668267175,0.0003290318093446943,0.95300803525441
2.2114743162108073,417.72909716686087,0.1991806320601822,0.022145802230287757,0.00013458243957016063,0.9708766423140343
2.2214809873248833,413.6782496279301,0.19923633863812157,0.008508449076787081,0.010909403662486,0.9819694936226365
2.2314876584389594,410.11855383451035,0.19929009885544371,-0.011447921343261527,-0.05016635371475373,0.9686039273874453
2.2414943295530354,407.07026367157107,0.19934191058695466,0.0030961521416723553,0.003064507553946613,0.9618301732253631
2.2515010006671115,404.5507232386921,0.19939177178448603,-0.009141645742881463,-0.055345647208892804,1.0056073805254888
2.2615076717811875,402.57426816595705,0.19943968047697586,0.02742514007862353,-0.006537145083573238,0.9768234291391069
2.2715143428952635,401.1521440473756,0.19948563477054676,0.0038406560858339333,-0.02054050222522485,0.9774669474329205
2.2815210140093396,400.292442455931,0.1995296328485805,-0.020704790212301073,0.01723655955664618,0.9943597232422371
2.2915276851234156,400.0000549043119,0.19957167297179002,-0.010861165716104763,0.01862965556983411,0.9896679463697924
2.3015343562374917,400.2766450132828,0.1996117534782882,-0.006257991448751075,0.004829160569913895,1.0113414900974762
2.3115410273515677,401.12063904604827,0.19964987278365337,-0.001964447650282615,-0.0013629801867703153,0.9710522610173944
2.321547698465644,402.52723486246845,0.19968602938099214,-0.015608773047042793,-0.017757421275914592,0.9664714352602635
2.33155436957972,404.4884292421791,0.19972022184099883,-0.03073468804990809,-0.01386694459765393,0.9587556870495821
2.341561040693796,406.99306342115227,0.1997524488120121,0.008381015835456147,0.0402575361693147,1.0014430923530941
2.351567711807872,410.02688658260575,0.1997827090200682,-0.0015802701487937487,0.05498285705013772,0.9529449612465194
2.361574382921948,413.57263694101164,0.19981100126895157,-0.016711872920501473,-0.001981137428722319,0.9825790767806907
2.371581054036024,417.61013995785345,0.19983732444024194,-0.03684515725650822,0.008618431533910422,0.972061137240874
2.3815877251501,422.1164231303071,0.1998616774933586,-0.01852702669696556,0.025778102818754027,0.9900392358256479
2.391594396264176,427.06584669972096,0.1998840594656015,0.013250116769479087,0.01064685072522656,1.0002004358794938
2.401601067378252,432.43024953619533,0.19990446947218946,-0.00398538600767929,-0.01411082107739131,0.941904606772882
2.4116077384923282,438.17910936920845,0.1999229067062949,-0.0010605752985753697,0.045212576047321006,0.9709799155829315
2.4216144096064043,444.2797164526132,0.19993937043907595,-0.06705348663899026,-0.0370291630131367,0.9689640094272898
2.4316210807204803,450.6973596758865,0.19995386001970517,0.001187839615814096,0.017689850044135525,0.9642482097631532
2.4416277518345564,457.39552406270326,0.19996637487539526,0.03131119407846984,0.014843502150596278,0.9873728832401086
2.4516344229486324,464.33609853310827,0.1999769145114217,0.0009987114544767332,0.010848927191671756,0.9631361001527596
2.4616410940627085,471.47959274716607,0.1999854785111424,-0.007079460031975018,-0.0330048971334586,0.9650055695539137
2.4716477651767845,478.785361796298,0.1999920665360141,0.028304805308273583,-0.0021331470893494135,1.002182244103443
2.4816544362908606,486.21183746385714,0.19999667832560566,0.0108711126274463,-0.01569441559919913,0.9403318539955489
2.4916611074049366,493.71676473912606,0.1999993136976086,0.024021194488895305,-0.006462213591810122,1.0014278494214903
2.5016677785190127,501.2574422390198,0.19999997254784405,-0.017718521330665402,-0.037064536721420176,0.991822400951185
2.5116744496330887,508.7909651695508,0.19999865485026702,-0.015635902214424804,0.026345863344205692,0.996975687246
2.5216811207471648,516.2744694446544,0.1999953606569674,0.003849218381354521,-0.021095126207115435,0.9911727180082973
2.531687791861241,523.6653755733981,0.19999009009816787,0.0027103121712396907,-0.018712187688066578,0.9935782556944631
2.541694462975317,530.9216309279053,0.19998284338221878,-0.016452004017655425,0.042481784640499,0.9920242016159728
2.551701134089393,538.0019490135452,0.19997362079558986,-0.0025469500107607825,0.004413883182473334,1.0145023481584585
2.561707805203469,544.8660443799938,0.19996242270285902,0.022122067937584717,-0.004095648983259425,0.9932014126977387
2.571714476317545,551.4748618365714,0.1999492495466978,-0.0021109345914740655,-0.014912218303296292,0.9921437505841114
2.581721147431621,557.7907986676752,0.19993410184785393,0.012966718602183867,0.030214586522542632,0.99899681768639
2.591727818545697,563.7779185839488,0.1999169802051308,0.02047932624085378,0.01044454230904413,0.9537929230706247
2.601734489659773,569.402156191852,0.19989788529536365,-0.0015618889647623585,0.00816887128358804,0.96865740407881
2.611741160773849,574.6315108182483,0.19987681787339295,0.021248489598383064,-0.016096692335508513,0.9647597580745382
2.6217478318879253,579.4362285871841,0.19985377877203453,-0.003568559277627473,0.05387805041815266,1.0087754119890473
2.6317545030020013,583.78897171289,0.19982876890204654,0.016274410471026967,-0.010731798211496352,0.9615563236363902
2.6417611741160774,587.66497404576,0.1998017892520936,0.005791798425097678,-0.004749958975242594,0.9878552529534649
2.6517678452301534,591.0421819862881,0.19977284088870773,0.021129679065728484,0.04045159956531558,0.9499879284993822
2.6617745163442295,593.9013799651909,0.19974192495624596,0.01608308539970391,0.015109488221280947,0.9549355715087408
2.6717811874583055,596.2262997757641,0.1997090426768454,0.02398311120416722,-0.04621795039327713,0.9584168405713593
2.6817878585723816,598.0037131363963,0.19967419535037464,-0.009519681958593816,-0.006034845473376717,0.9718317174746567
2.6917945296864576,599.2235069565763,0.19963738435438266,0.0258290712488998,-0.02614604729432049,1.0114897570357033
2.7018012008005337,599.8787408781519,0.19959861114404406,0.0017959588195890013,0.0008341799177701914,0.9796580576209268
2.7118078719146097,599.9656867644376,0.19955787725210183,-0.005162985854335509,0.015880628849253377,0.9793775546790497
2.7218145430286858,599.4838499124919,0.1995151842888065,0.0155232117413322,-0.03165010547661151,0.9887930643166021
2.731821214142762,598.4359718678684,0.19947053394185266,-0.014207216073611346,0.01272592113964935,0.9774416284552623
2.741827885256838,596.8280148258243,0.1994239279763122,0.008318451403927556,-0.003159791167860734,0.9653160236492323
2.751834556370914,594.6691277077443,0.19937536823456456,-0.04346665181699438,-0.0167078555015708,0.9939920680173918
2.76184122748499,591.9715941057916,0.19932485663622376,-0.025574579152733992,0.027901308356744505,0.9919461058254969
2.771847898599066,588.7507623919752,0.19927239517806272,0.017791389408530162,-0.05083325726022492,0.9994476054987231
2.781854569713142,585.0249583892937,0.19921798593393414,-0.0001861266442370878,0.019474427688925034,0.9850777061221581
2.791861240827218,580.8153811018387,0.1991616310546887,0.0024029153697859964,-0.008345211173369636,1.0008409403227223
2.801867911941294,576.1459820971315,0.1991033327680899,-0.02817866716049518,-0.007105190721897811,1.0024933721665779
2.81187458305537,571.0433292269798,0.19904309337872594,0.03452673941128635,-0.005675094900741333,0.9792566072827446
2.8218812541694462,565.5364554622528,0.1989809152679189,0.022831813674484072,-0.03455378696382891,0.9721834178070377
2.8318879252835223,559.6566937016711,0.1989168008936302,-0.008466930925521463,-0.030126333537408918,0.9849739955151059
2.8418945963975983,553.4374984945166,0.19885075279036385,0.01741792821734887,-0.002299463541204947,1.008813022642907
2.8519012675116744,546.914255691615,0.1987827735690659,-0.012469373342008592,0.006681427123809486,0.9957118260848629
2.8619079386257504,540.1240811076391,0.19871286591702148,-0.018492933340483998,-0.00014643592552700754,0.994561115150262
2.8719146097398265,533.105609340299,0.19864103259774843,-0.00381147957528147,-0.0004565945003407516,0.9998441507417481
2.8819212808539025,525.8987739479902,0.19856727645088812,0.017483102878214273,0.003788018698339874,0.9709095253621131
2.8919279519679786,518.5445802366447,0.19849160039209315,0.003914295989285362,0.0032397209622785504,0.9955924917898503
2.9019346230820546,511.08487194857037,0.19841400741291215,-0.02151619353482214,-0.007240736432125681,0.999796044793905
2.9119412941961307,503.5620931807753,0.19833450058067148,-0.019479488463554254,-0.03530372867579309,0.9843824547458905
2.9219479653102067,496.0190468874048,0.19825308303835393,0.016260496101677006,-0.015699129793426886,0.9582368714698436
2.931954636424283,488.4986513403594,0.1981697580044746,-0.008779528116709042,0.014627840571490249,0.9789804018934485
2.941961307538359,481.0436959337834,0.19808452877295354,-0.01942778274736398,0.0028448997883706723,0.9786657821778781
2.951967978652435,473.69659772183593,0.19799739871298566,-0.03624015102248626,0.023255815782671854,1.0039236970498355
2.961974649766511,466.4991600749968,0.19790837126890745,0.0054067515743326045,-0.015416904584848337,0.9843218140742885
2.971981320880587,459.492334828095,0.1978174499600608,0.003037323307446771,-0.007604082406492542,0.9530114014851704
2.981987991994663,452.7159892733913,0.19772463838065396,-0.014433753684261766,0.012642927033665706,0.9823982319165677
2.991994663108739,446.2086793244651,0.19762994019961944,0.0031456424112146736,0.061700646964429944,0.9449420895454858
3.002001334222815,440.00743014155955,0.19753335916046896,-0.01067371175552678,0.03643948500713907,0.9771320029590511
3.012008005336891,434.14752546657553,0.19743489908114545,-0.0005908967215292433,0.011032308516291271,0.98784082895326
3.022014676450967,428.66230686635095,0.19733456385387213,0.002662905061892191,-0.01265123677422906,0.9641934876974866
3.0320213475650433,423.5829840264914,0.19723235744499867,-0.0433546853002824,-0.027500820452165,0.9653506611009484
3.0420280186791193,418.93845717513227,0.19712828389484433,-0.01295723299556096,-0.022825504361873625,0.9990134390673794
3.0520346897931954,414.7551526470075,0.19702234731753834,-0.002972551360440612,-0.018957720257329325,0.9666378576898912
3.0620413609072714,411.0568725234243,0.19691455190085724,0.0009502551412812703,0.004264809170184724,0.9688428030159779
3.0720480320213475,407.8646592036655,0.1968049019060592,0.03242404623526445,-0.03955739058710137,0.9582174175365769
3.0820547031354235,405.19667567837104,0.19669340166771582,0.016334826923939453,-0.019522924786484704,0.9213506154782244
3.0920613742494996,403.0681021861227,0.19658005559354053,-0.012348175733768453,-0.02347810936043956,0.986616215756543
3.1020680453635756,401.4910498412302,0.1964648681642145,0.00962974544730572,-0.017272314387415343,0.9243322206069698
3.1120747164776517,400.4744917241583,0.19634784393320942,0.001085788410100777,-0.01821306264617056,0.9786774226427374
3.1220813875917277,400.02421182667575,0.1962289875266076,-0.0016292197572335034,0.006539056422301291,0.9653531377348709
3.1320880587058038,400.142772142216,0.1961083036429191,-0.009701221400121232,-0.0024565369349246065,0.9726359424740847
3.14209472981988,400.829498088699,0.1959857970528958,-0.0027053234125903242,-0.007242973701673002,0.9683186149821064
3.152101400933956,402.0804823467543,0.195861472599343,-0.025396582190014567,-0.039466993368096906,0.9719918815104769
3.162108072048032,403.8886070915083,0.19573533519692796,0.026151093842818184,0.03149315402039647,0.9568566980855446
3.172114743162108,406.24358449143915,0.19560738983198553,-0.0007582596277886986,-0.01989952464587713,0.9567282509682161
3.182121414276184,409.1320152438726,0.19547764156232114,0.0162747636835424,-0.021461117340288997,0.978794291713031
3.19212808539026,412.53746481406216,0.19534609551701076,-0.0026389131870336612,0.022783597705928384,0.9663288091073523
3.202134756504336,416.4405569440728,0.19521275689619821,-0.010364255366638504,-0.01596711576468706,0.9694630948150532
3.212141427618412,420.8190838994193,0.1950776309708896,-0.02239157382504358,0.015762769095939242,0.97976812750935
3.222148098732488,425.6481328261846,0.19494072308274485,-0.018244527517801347,0.014287294197876894,0.9900373224899184
3.2321547698465642,430.9002274996709,0.1948020386438667,-0.004637087137021108,-0.013277754676813249,0.9714446772145365
3.2421614409606403,436.5454846580654,0.19466158313658663,0.006622507490571464,0.020941405821194713,0.9831985876129856
3.2521681120747163,442.55178403161915,0.19451936211324822,-0.0010903778016360843,-0.024737245892091635,0.9796084856674232
3.2621747831887924,448.88495109990504,0.1943753811959876,-0.017192714255269245,-0.00390608583423539,0.9890808842799719
3.2721814543028684,455.5089515373121,0.19422964607651122,0.01010180317868216,-0.014104313855760234,0.9692480149238616
3.2821881254169445,462.386096240421,0.1940821625158709,0.019621188698893188,-0.008271657050706788,0.965646437258743
3.2921947965310205,469.47725577070133,0.19393293634423603,0.02424552379653085,0.0136706669573355,0.9779073324981608
3.3022014676450966,476.74208299239655,0.1937819734606631,0.03165853885852915,0.01367547604488926,0.9782851100684964
3.3122081387591726,484.13924263883973,0.1936292798328625,-0.02074571377367031,0.023606734739384645,0.9713960763387266
3.3222148098732487,491.6266465010163,0.19347486149696272,0.007253399194807546,0.014288602458154354,1.0011632406839857
3.3322214809873247,499.16169290020173,0.19331872455727153,0.013999640548734925,0.004989666740489807,1.0163363772830896
3.342228152101401,506.70150908213134,0.19316087518603492,0.002714416587778599,0.001583368695001797,0.9789942620071644
3.352234823215477,514.2031951535262,0.19300131962319284,-0.005525707233272324,0.025569407875924006,0.9966464339176353
3.362241494329553,521.6240681730376,0.19284006417613278,0.03405281562696659,0.008882966086144778,0.9742320656494493
3.372248165443629,528.9219050077814,0.19267711521944023,-0.0351673326563546,-0.008416210037390008,1.0071694248166223
3.382254836557705,536.0551825736635,0.1925124791946468,0.013855966056407064,-0.01583935772733456,0.9769875785236177
3.392261507671781,542.9833140925828,0.19234616260997559,-0.006184253122482337,0.01499815543582447,0.9781339342961807
3.402268178785857,549.666880022257,0.1921781720400838,-0.017329436645517022,0.02039731329032368,0.9716660363353425
3.412274849899933,556.0678523447365,0.192008514125803,0.005578680601333378,-0.0015746748497154548,0.9862166671576681
3.422281521014009,562.1498109374492,0.1918371955738764,-0.004268179273566743,-0.013392082555058069,0.9988583119250791
3.4322881921280852,567.8781507956772,0.19166422315669393,-0.004121220219521397,0.015582213807674564,0.9844051004095293
3.4422948632421613,573.2202789274095,0.1914896037120244,-0.007489934802891474,0.026165416458103437,0.9676993917586826
3.4523015343562373,578.1457998002876,0.19131334414274523,-0.009018501488642283,-0.002896632739070883,0.9668149429650064
3.4623082054703134,582.6266882854904,0.19113545141656957,-0.012847655422946854,0.007129734591238314,0.9959277530621068
3.4723148765843894,586.637449114543,0.19095593256577081,-0.010735836463613762,0.010741976347191684,0.9942340281629715
3.4823215476984655,590.155261941779,0.19077479468690475,-0.002015030419690459,0.0061828112579991054,1.0054767943721392
3.4923282188125415,593.160111187081,0.19059204494052884,0.014747303569896671,0.01244561297776915,0.9804742021645073
3.5023348899266176,595.6348999201215,0.1904076905509193,0.013831293898240147,0.005481319009208752,0.9334708244383841
3.5123415610406936,597.5655471381317,0.19022173880578544,0.023709655466658763,0.01700281223291627,1.0140504241705401
3.5223482321547697,598.9410678837053,0.19003419705598157,0.008752418688321297,-0.01221550941584854,0.9377808733064937
3.5323549032688457,599.7536357467859,0.1898450727152165,0.03774745785159766,0.025703636070150197,0.9610270719732931
3.5423615743829218,599.9986273952172,0.18965437325976037,-0.00173082427180121,0.0024680661987660315,0.9733376739727456
3.552368245496998,599.6746488804839,0.18946210622814913,0.007433355116695921,-0.004368118915183819,0.9853072889413143
3.562374916611074,598.7835435689722,0.18926827922088657,0.001564214061306283,-0.003787754758015987,0.9912428080249249
3.57238158772515,597.3303816536203,0.18907289990014386,-0.005265277785749977,-0.0027588895141280427,0.989750166480707
3.582388258839226,595.3234313056387,0.1888759759894566,-0.01744805774660541,0.028795904505097804,1.0018450319400805
3.592394929953302,592.774111630436,0.1886775152734196,-0.015243496917361663,-0.02909809179735163,0.9862125417673144
3.602401601067378,589.6969276954252,0.18847752559737901,-0.017708563931007316,0.005823569538542805,0.9680208377694478
3.612408272181454,586.1093879993844,0.1882760148671223,0.002981483247528604,-0.015835790645634815,1.008167306896928
3.62241494329553,582.0319048529561,0.18807299104856576,0.010799350405361896,-0.012094888417792079,1.0024720794934365
3.632421614409606,577.4876782370959,0.1878684621674394,-0.0033892447141477444,-0.0005194545416502244,1.009925185678008
3.6424282855236823,572.5025638002903,0.18766243630897,-0.023858055711434966,-0.00648903479344313,0.971465794647195
3.6524349566377583,567.1049257456131,0.18745492161756117,-0.004006468968823589,-0.012338044181539498,0.9761359456746639
3.6624416277518343,561.3254754446561,0.18724592629647166,0.01180667051815726,-0.003294321367041688,1.0072419283906053
3.6724482988659104,555.1970966965918,0.18703545860749082,0.01452315602466603,0.026466509627318273,0.9842219886792627
3.6824549699799864,548.7546586265973,0.18682352687061227,0.023388474312707897,0.0033277990207632134,0.971631267180316
3.6924616410940625,542.0348172882143,0.1866101394637048,-0.014241791934292937,-0.00414358853531713,0.9416402988538524
3.7024683122081385,535.0758070984778,0.18639530482218133,0.008638102385280328,0.022020118435224098,0.9855335503317887
3.7124749833222146,527.9172232925046,0.18617903143866532,-0.025504309890697355,0.035249558244749235,0.9805833001928445
3.7224816544362906,520.5997966353283,0.18596132786265512,-0.04988584233770608,0.013601883753604136,0.9683970018760586
3.7324883255503667,513.1651616728176,0.185742202700186,0.0387073262984039,0.02763207457036666,0.9741126330064637
3.7424949966644427,505.6556198402813,0.1855216646134899,-0.019331131472836046,0.0232988481047629,0.9934847770982261
3.752501667778519,498.11389877661776,0.18529972232065312,0.030105300892556534,-0.0004574283631819602,0.9477677765456743
3.762508338892595,490.58290921346344,0.18507638459527148,-0.007265937001787424,0.029052380520017875,0.955775969115982
3.772515010006671,483.1055008225804,0.18485166026610372,-0.001200569269502828,0.026860900732845625,0.9829602928562741
3.782521681120747,475.7242184106627,0.18462555821672236,0.04876914587072768,0.0019138009509660943,0.9888174983044827
3.792528352234823,468.48105984875826,0.18439808738516247,-0.004005307409495227,-0.0381946690346952,0.9630816558445106
3.802535023348899,461.41723711363187,0.18416925676356852,-0.010592076744907671,-0.025193912997788316,0.958026517029014
3.812541694462975,454.5729418006973,0.18393907539783877,-0.00579205583715729,-0.0012270515275301852,0.9990224159267478
3.822548365577051,447.9871164426912,0.18370755238726766,-0.0056977438632549275,-0.016077874265517926,0.9738566487413672
3.832555036691127,441.69723293524004,0.18347469688418627,0.006945969112462868,-0.02376805828690374,0.9614359253053656
3.8425617078052037,435.7390793300266,0.18324051809360037,0.004092080475930666,-0.0093698968430846,0.9539910593171437
3.8525683789192797,430.146556208662,0.18300502527282653,-0.0008308983561319167,-0.03999509496650064,0.9769327306024937
3.8625750500333558,424.95148379584043,0.18276822773112625,0.00037682453192756254,-0.0035961021517212713,0.983814529417868
3.872581721147432,420.1834209092715,0.18253013482933797,-0.00963755514510971,0.030486221162068925,0.9559087812004928
3.882588392261508,415.86949677651785,0.18229075597950692,0.036879137044233005,-0.017558846156289956,0.9959272763449719
3.892595063375584,412.0342566756658,0.18205010064451313,0.0005567974590671353,-0.044326353860921416,0.9676681965518065
3.90260173448966,408.6995222781004,0.18180817833769733,0.000945010888203354,0.0068104148329730385,1.0235987280698122
3.912608405603736,405.8842674880012,0.18156499862248496,0.01782307862004283,0.01901686900434096,0.996627750353336
3.922615076717812,403.60451048500744,0.18132057111200792,-0.00012631552623811957,-0.009305378951407066,0.9612838022365922
3.932621747831888,401.87322258430345,0.18107490546872473,-0.021578928249921057,-0.030472165331292645,0.9917576083772295
3.942628418945964,400.7002544326932,0.18082801140403856,-0.005644007255451804,-0.008185178899708597,0.9728477209686461
3.95263509006004,400.0922799605896,0.18057989867791324,-0.00913796954686098,0.0045042159233881,0.9872838172815851
3.9626417611741163,400.0527584088203,0.18033057709848743,0.011087079600198621,0.00886999200707339,0.9714643745435381
3.9726484322881923,400.5819146463092,0.18008005652168702,0.006512230467582899,0.009217867375828722,0.9566950324469349
3.9826551034022684,401.6767378906226,0.17982834685083543,-0.01993981079127623,-0.004393803639146874,0.9577930668261584
3.9926617745163444,403.3309988386571,0.17957545803626207,-0.023767556053419056,0.02751805479607978,1.0014316240732253
4.0026684456304205,405.53528511000275,0.1793214000749091,-0.005248461999965988,0.001460808904304609,0.9934939023783076
4.0126751167444965,408.2770548013141,0.1790661830099362,-0.01624676618081957,0.02102767990283851,0.9627793665166765
4.0226817878585726,411.5407078469775,0.17880981693032355,-0.00888780601780477,0.005998419476928048,0.9703613273889196
4.032688458972649,415.30767478004884,0.17855231197047297,-0.045344015293865135,-0.025819585813451364,0.9709591490995063
4.042695130086725,419.5565223884292,0.17829367830980736,-0.03209461575408202,0.012256518092818516,1.0029962062179305
4.052701801200801,424.2630756651213,0.17803392617236827,-0.004484423953804338,0.004356312709963995,0.9742673623153141
4.062708472314877,429.4005553586937,0.1777730658264117,0.0013782027403980099,0.0177516368781474,0.9402384958931784
4.072715143428953,434.93973034132404,0.17751110758400224,0.012897566167259053,-0.012856895663690573,0.9948161409369124
4.082721814543029,440.8490839274759,0.17724806180060537,-0.011298035340122232,-0.003635461529397958,0.9688480064062112
4.092728485657105,447.0949931968983,0.1769839388746782,0.01425523435786701,0.004591836980817626,0.9985173286179602
4.102735156771181,453.64192030163576,0.17671874924725825,-0.009948827734812985,-0.0012386260871027272,0.9936803900614052
4.112741827885257,460.45261466855476,0.1764525034015509,-0.015144641345083787,-0.0015033651552588093,0.9733452705345073
4.122748498999333,467.48832494690083,0.17618521186251473,-0.03270196903693381,-0.0145614078985577,0.9573279886622504
4.132755170113409,474.70901949494703,0.17591688519644572,0.018443009185317008,2.6248368966974202e-05,0.9479324034095608
4.142761841227485,482.07361415121846,0.17564753401055938,0.007191152189305861,0.012621521079321503,0.9746725738631447
4.152768512341561,489.5402059943212,0.1753771689525715,-0.007739464892835659,-0.030785445520912415,0.9857856582250776
4.162775183455637,497.066311761336,0.17510580071027723,-0.003293561126043701,0.023912910703760917,0.9982584883039034
4.172781854569713,504.6091095682248,0.17483344001112858,-0.012422853263550433,-0.003968754155960155,0.9632155569958684
4.182788525683789,512.1256825569197,0.17456009762181032,-0.03354190003678268,-0.015111306673508384,0.9699711168524848
4.192795196797865,519.573263082792,0.17428578434781444,-0.03353058632642925,-0.010656806930045379,0.97502728864204
4.202801867911941,526.9094760531286,0.17401051103301293,-0.0015402471691249337,0.02632114335698013,0.9785896694517253
4.2128085390260175,534.092580032078,0.17373428855922912,-0.029762916914398713,-0.008345533376479222,0.9723499295268988
4.2228152101400935,541.0817047402231,0.17345712784580752,0.0009850845154421124,-0.004398039363038952,1.015316512134762
4.23282188125417,547.8370835974704,0.17317903984918218,0.026652800278244643,0.01818931690393488,0.978541492600859
4.242828552368246,554.32027998613,0.17290003556244357,0.0001477006990942259,-0.005990716350167579,0.9981510960829811
4.252835223482322,560.4944059468058,0.172620126014904,0.000791925032575673,-0.023490052385973074,0.971356528204787
4.262841894596398,566.3243320627575,0.17233932227166168,0.012714832800640917,-0.027639447026253358,0.9989448668906072
4.272848565710474,571.7768873385431,0.1720576354331631,-0.013181671241439954,0.005836200102460262,1.013507958390318
4.28285523682455,576.8210479356793,0.1717750766347645,-0.0017600949091081187,-0.01576903229093418,0.9849300557190579
4.292861907938626,581.4281136914469,0.1714916570462915,-0.0056842408642334055,0.029610113415551573,0.9999688900053791
4.302868579052702,585.5718714164938,0.17120738787159762,-0.012473907689853445,-0.0020720472800339817,0.9703782412368388
4.312875250166778,589.2287440421112,0.17092228034812135,0.027238929057999385,0.02647980356691721,0.9568436470261901
4.322881921280854,592.3779247685595,0.1706363457464419,-0.018684611609307285,-0.007124420618584223,0.9900529192312308
4.33288859239493,595.0014954511752,0.17034959536983368,-0.00204204373074486,0.004036944742063659,0.9917628638069917
4.342895263509006,597.084528550669,0.17006204055381957,0.007292392967387955,0.03205357692830229,0.9752360475798307
4.352901934623082,598.6151720675346,0.16977369266572256,0.02200689111059319,0.028775773162356952,0.9899192584698143
4.362908605737158,599.5847169773161,0.16948456310421675,-0.01057433968870977,0.005571592949597568,0.995350703852324
4.372915276851234,599.9876467830389,0.16919466329887645,0.01768897503747247,-0.00632945204557811,0.9866306583751394
4.38292194796531,599.8216689028618,0.16890400470972441,-0.013539704497884322,-0.012334466076709818,0.9684516956665344
4.392928619079386,599.0877277143628,0.168612598826779,-0.0026559076459246973,-0.006279897467376149,0.9772647191980632
4.402935290193462,597.7899991812394,0.1683204571695997,0.010007309185392714,-0.007008712529859048,0.9670601354099131
4.4129419613075385,595.935867092994,0.1680275912868319,0.017028855187515245,-0.0025732892125248466,0.951350098567495
4.4229486324216145,593.5358810527987,0.1677340127557504,0.011786038000732045,0.0016228581681236097,1.0150828234923404
4.432955303535691,590.6036964525772,0.1674397331818016,0.020931155504493933,0.014335167231669941,0.9605206287324825
4.442961974649767,587.1559967768313,0.1671447641981449,-0.0013150402374038517,-0.03695066709425508,1.0116140627068033
4.452968645763843,583.2123986772916,0.16684911746519265,-0.01630154489594234,-0.013162133577669875,0.9613962717246017
4.462975316877919,578.7953403584869,0.16655280467014935,0.007758164051037431,-0.008928539796668872,0.9628760678767228
4.472981987991995,573.9299539093046,0.16625583752654957,0.03269378425695241,0.010010908174536266,0.9664213117484763
4.482988659106071,568.643922306942,0.1659582277737949,0.006601405953624615,0.01645234172474465,0.9706233965091606
4.492995330220147,562.9673219068607,0.16565998717668992,0.005831362153918916,0.019854215751261062,0.9838425758525469
4.503002001334223,556.9324513149521,0.16536112752497711,0.005005932593558706,0.02665726360975409,0.9675709241016819
4.513008672448299,550.573647615582,0.16506166063287075,-0.026453629337453047,0.010353850028876599,0.9688646973829844
4.523015343562375,543.9270910011444,0.16476159833858997,-0.029385074887780378,-0.0225269562017517,0.9669165771900551
4.533022014676451,537.0305989147384,0.16446095250389073,0.01834979939985156,-0.0393583433410566,1.0003236338714485
4.543028685790527,529.9234108772439,0.16415973501359687,-0.017439218361229157,0.025629792557170808,0.9549684741209756
4.553035356904603,522.6459652230917,0.16385795777513035,-0.03760818391149715,-0.007294351998100067,0.9310490689142934
4.563042028018679,515.2396690150514,0.16355563271804052,0.00987146485420396,0.042253656767027775,1.0006889074432137
4.573048699132755,507.74666244715917,0.16325277179353256,0.00011866894597743692,-0.010784359651145183,0.9494391965820365
4.583055370246831,500.2095790763019,0.16294938697399503,-0.0004568524805789087,0.028379295357030685,0.9871679870928134
4.593062041360907,492.6713032466645,0.1626454902525265,0.018708447746636596,0.0037540043630584084,0.9675570090657243
4.603068712474983,485.1747260872596,0.1623410936424616,0.0038927460681204605,0.01167791025213254,0.9319685830821954
4.613075383589059,477.7625014708534,0.16203620917689598,0.015096349326829635,0.0344888138877282,1.0037198803323222
4.6230820547031355,470.4768033228198,0.16173084890821077,0.026587004188613213,-0.008180173919068919,0.9969100334081505
4.6330887258172115,463.3590856608007,0.16142502490759597,0.01070562318658594,-0.007603940856309634,0.9805727092517196
4.643095396931288,456.44984673047134,0.16111874926457342,-0.011924882627515421,-0.016525874976156124,0.9937938351092601
4.653102068045364,449.78839857944547,0.1608120340865188,-0.014839466263303704,0.03547792484351767,0.9557350490691954
4.66310873915944,443.4126433803854,0.16050489149818312,0.01012824840087265,-0.0001571555588035723,0.9630974284929387
4.673115410273516,437.358857775984,0.16019733364121322,-0.009772406782141535,-0.012955594150482606,0.971486715927061
4.683122081387592,431.66148647286303,0.15988937267367193,0.015920957417636012,0.02251797941897956,1.0053626589287266
4.693128752501668,426.3529462587757,0.15958102076955752,0.03994741286490954,0.007198999029476428,0.9949259030405122
4.703135423615744,421.4634415582268,0.15927229011832228,0.014714013548329795,-0.00800509772340405,0.9691202807570032
4.71314209472982,417.0207925759513,0.15896319292439082,-0.010824398726733082,0.012969827419067334,0.9779954293129599
4.723148765843896,413.05027700607445,0.15865374140667743,0.014800573536905707,0.007800573212457095,0.9801758281042204
4.733155436957972,409.57448620760357,0.1583439477981033,-0.009478775827320204,3.7504393182726623e-05,0.9927693750008557
4.743162108072048,406.6131966645685,0.15803382434511273,0.0038308697327597797,0.020943388332393176,0.9903004409097458
4.753168779186124,404.1832574621851,0.15772338330718907,0.0013761597391758718,0.0053612661004678935,0.9844633817220932
4.7631754503002,402.29849441927234,0.15741263695637017,0.014258509410750788,-0.01222379188935424,0.9952701385442905
4.773182121414276,400.9696314223871,0.15710159757676317,-0.030031121990985343,0.011949585401851872,0.9752130454181313
4.783188792528352,400.20422940927267,0.15679027746405894,-0.024401573362181066,0.016162709106583985,0.9823759610776603
4.793195463642428,400.00664334878866,0.15647868892504596,0.026943951076996493,-0.03444144717079573,0.96698948390594
4.803202134756504,400.3779974620968,0.1561668442771239,0.03020266716771361,-0.014162910705077397,0.941464054646863
4.81320880587058,401.31617882609066,0.15585475584781672,0.037776217550056675,0.026048923988194483,0.9943921108589127
4.8232154769846565,402.8158493954623,0.1555424359742852,-0.011291860179055367,-0.038163990507866646,0.9941377794320315
4.8332221480987325,404.868476375005,0.15522989700283932,0.004164675808945787,-0.00929306947706546,0.9507590803515068
4.843228819212809,407.4623807693373,0.15491715128845035,0.022591784533660317,-0.026007253241661216,0.964311500526617
4.853235490326885,410.5828038338156,0.15460421119426218,0.008451567137305107,-0.01215241781400417,1.004190001257055
4.863242161440961,414.2119910485386,0.1542910890911028,0.01754188339008939,0.005268485448613057,0.9979347216448392
4.873248832555037,418.3292931376564,0.15397779735699518,-0.0016685489867736684,0.011948222184528083,0.9872541296971474
4.883255503669113,422.9112835592013,0.15366434837666795,-0.009580361333295078,-0.024792246102091405,0.964336643773769
4.893262174783189,427.9318917969495,0.1533507545410658,-0.013775812869253765,-0.004830529376321809,0.9330753337089867
4.903268845897265,433.3625516959195,0.15303702824685977,0.016162540586769886,-0.010780146965160393,0.9773736518411474
4.913275517011341,439.17236399749737,0.15272318189595707,0.009305320042652634,-0.04663879680066313,1.00344117156647
4.923282188125417,445.328272149416,0.15240922789501088,-0.028471728792889665,-0.017045930585666804,0.9832354613880092
4.933288859239493,451.7952503902545,0.15209517865492989,-0.003254599254632338,0.024031828396466715,1.0008407747689931
4.943295530353569,458.53650303830375,0.15178104659038769,-0.011729046584799514,0.01333551586285942,0.9599240141453915
4.953302201467645,465.5136738508943,0.15146684411933195,-0.016891283161616547,-0.012238048424074274,0.9891884443392642
4.963308872581721,472.6870642629638,0.1511525836624937,0.01753096766941726,0.01984900077126028,0.9828699410707082
4.973315543695797,480.01585926315215,0.1508382776428961,0.017221190892661102,0.00706664230371939,0.9651455041137208
4.983322214809873,487.4583596222239,0.15052393848536344,-0.003983978893761896,-0.01680025852575719,0.981965791662612
4.993328885923949,494.9722191524953,0.1502095786160301,0.01457079187917728,-0.026667108691375466,0.9541742987444725
5.003335557038025,502.51468564831885,0.14989521046184912,0.010067227031570588,-0.0012707192620719605,0.9819215025048739
5.013342228152101,510.0428441367144,0.14958084645010106,-0.032836043908903115,0.024770507186072908,0.9878113825422188
5.0233488992661774,517.5138610541103,0.1492664990079027,-0.0005928071380089238,0.0047757385187007445,0.988037533384698
5.0333555703802535,524.8852279598901,0.14895218056171594,-0.006704972545274984,-0.018989693228652144,1.0132077875294625
5.0433622414943295,532.1150034000507,0.14863790353685624,0.006177410300323698,0.0018008061332361208,0.9963732004745907
5.053368912608406,539.1620515448421,0.14832368035700183,0.01167310898792362,0.016128292042762095,0.9850572784291025
5.063375583722482,545.9862762425756,0.14800952344370227,0.008360640848222179,-0.006145215453016081,0.9874806283765657
5.073382254836558,552.548849157893,0.14769544521588757,0.0049328446432574695,-0.0038348629436474433,0.9533697792318027
5.083388925950634,558.8124306964461,0.14738145808937725,0.00018698582830707085,0.0017245828722145114,0.9803040085038338
5.09339559706471,564.7413824589598,0.14706757447638946,0.012682746235311309,0.000223244718086898,1.0050507085490448
5.103402268178786,570.301970015877,0.14675380678505037,0.013657143275368376,-0.01372703908414428,0.9414861997034727
5.113408939292862,575.462554848831,0.14644016741890373,0.008894989622661087,-0.010270220051758747,0.9921270226072872
5.123415610406938,580.1937743668442,0.14612666877642033,0.018441868540052683,-0.015316746096332823,0.995341493860036
5.133422281521014,584.4687089730063,0.14581332325050816,0.0007392193398556355,0.014370351843128435,1.0422535451343622
5.14342895263509,588.2630352310482,0.14550014322802227,0.003375753453600659,-0.004412250578960948,0.9931148916667213
5.153435623749166,591.5551642603388,0.14518714108927525,0.04876802857472825,0.00442604079805017,0.9693020960302478
5.163442294863242,594.3263645718596,0.14487432920754773,-0.0022055719563026928,-0.029923943516959876,0.9891858120062804
5.173448965977318,596.5608686462501,0.14456171994859926,0.0028777319575397577,0.0009766171642280057,0.9636670829137003
5.183455637091394,598.2459626475222,0.14424932567017962,0.02149277787510049,-0.015475931409088504,0.9588768944570938
5.19346230820547,599.3720587619842,0.14393715872154014,-0.006183051851601443,0.006681331259732871,0.996854997491531
5.203468979319546,599.9327497507904,0.14362523144294556,0.02397117471493309,0.018265056353796823,0.9622046515248023
5.213475650433622,599.9248454057181,0.1433135561651863,-0.0051578604609296246,0.018284085255664953,0.978593944708012
5.223482321547698,599.3483907007493,0.14300214520909085,-0.015240302044198394,-0.003408475520405482,0.981815542729559
5.2334889926617745,598.2066655361799,0.14269101088503885,0.013771449573869318,0.029014888148874818,0.992950681313089
5.2434956637758505,596.5061660767078,0.14238016549247443,0.010295987162891953,-0.006743100666755284,0.9839716092199217
5.253502334889927,594.2565677896888,0.14206962131941994,0.035487017859388306,-0.0012671878875261558,0.9883679525667477
5.263509006004003,591.4706703938559,0.14175939064199022,-0.005470166761786312,0.027051051143041023,0.9981242092164463
5.273515677118079,588.1643250317419,0.14144948572390736,0.003747260702407815,-0.006757736701598187,0.9695070500926236
5.283522348232155,584.3563440801679,0.14113991881601584,-0.009374685214788105,-0.021443764725869962,0.965961838248876
5.293529019346231,580.0683941119631,0.1408307021557983,-0.020313162808510064,0.0065173509014964165,0.9962057370510765
5.303535690460307,575.3248726179402,0.14052184796689166,0.013481526577488512,0.0034370978919873695,0.9892100320967531
5.313542361574383,570.1527691905429,0.1402133684586041,0.012447672199060409,-0.007717271266759121,0.9684706892707565
5.323549032688459,564.5815119590139,0.13990527582543222,0.0038665889095966933,0.05248691697673604,0.9830083117239942
5.333555703802535,558.6428001498186,0.13959758224657914,0.015121545888008037,0.021476301072807985,0.9611097246096736
5.343562374916611,552.3704237250295,0.13929029988547295,-0.004906331795847766,0.03396880032102444,1.0299437788841346
5.353569046030687,545.8000711248875,0.13898344088928588,0.020313368885884434,-0.0010674557276043276,0.9846199425162095
5.363575717144763,538.9691262084334,0.13867701738845414,-0.009558872461096777,0.02298956140834967,0.9693593321538672
5.373582388258839,531.91645554759,0.1383710414961984,-0.015204998946864392,-0.023245932494264918,1.0011528009808024
5.383589059372915,524.6821872849237,0.13806552530804483,-0.01919447622060881,0.011894569320974869,1.0197262101769058
5.393595730486991,517.3074828133549,0.13776048090134727,-0.0012828099284397675,-0.02240536591933132,1.0081730951006187
5.403602401601067,509.834302576901,0.13745592033480933,0.03153658541678266,0.00746104335800038,0.9668217709943875
5.413609072715143,502.30516732498796,0.13715185564800808,0.02179821101648264,0.004511293503597211,0.9538675106846883
5.423615743829219,494.7629161787546,0.13684829886091796,-0.003621575768058966,0.010691900975308,0.9767131001212545
5.4336224149432955,487.2504628858916,0.13654526197343564,0.024705957989060293,-0.02477825449354972,0.9788908463832998
5.4436290860573715,479.81055165086445,0.13624275696490562,-0.001134359759163267,-0.02174585209769111,0.9561277149837023
5.4536357571714476,472.4855139298114,0.1359407957936467,0.02507636675419348,-0.015601463311394843,0.9939548469500534
5.463642428285524,465.31702757387745,0.13563939039647932,0.013838261253034239,0.007373042415193265,0.9733117340567837
5.4736490993996,458.3458796914233,0.13533855268825357,0.0005270620647251779,-0.00835791374723484,0.9565609640320747
5.483655770513676,451.61173457836566,0.13503829456137825,0.020365330857202883,-0.057959927615127756,0.9743835483211105
5.493662441627752,445.15290803706523,0.13473862788535082,-0.008746281682473293,0.012861138981673226,0.9974137121320319
5.503669112741828,439.0061493678565,0.134439564506288,-0.021972003573557188,-0.016277668980364018,0.9770070467541372
5.513675783855904,433.20643227361904,0.13414111624645758,-0.004815659877331944,-0.008474946754177703,1.005638474157992
5.52368245496998,427.786755867114,0.13384329490381122,-0.02298621420319952,0.006876787629712916,0.9819472305742682
5.533689126084056,422.7779569133023,0.13354611225151783,-0.009761523763532915,-0.016656916936778735,0.9786904503973829
5.543695797198132,418.2085343749412,0.13324958003749826,-0.001321484531053171,0.007654231984090549,0.9828884062020737
5.553702468312208,414.10448725976755,0.13295370998396094,0.031200203620978875,-0.005199150964438927,0.9910747237776505
5.563709139426284,410.4891666918669,0.13265851378693846,-0.045340942054356986,-0.00688322929144198,0.9611309913345806
5.57371581054036,407.3831430489231,0.13236400311582514,0.022503527280766843,-0.024102562363031443,0.9705922138767673
5.583722481654436,404.80408892130083,0.13207018961291583,0.049511145434023324,-0.00814331811361796,1.01991352947838
5.593729152768512,402.76667855889707,0.13177708489294565,-0.00548164394827348,0.00650210714003056,1.0142960779328056
5.603735823882588,401.2825043778936,0.13148470054263084,-0.0006751323847763922,0.01953946216923497,0.9553600253213389
5.613742494996664,400.3600110024607,0.13119304812021065,0.003479427322179345,-0.018369524094690236,0.9513673775869818
5.62374916611074,400.00444721670686,0.1309021391549906,-0.013769660315331108,-0.0028630554663192013,0.984920759049965
5.633755837224816,400.21783610025307,0.13061198514688663,-0.03783005748606786,0.012796426155969605,0.9909722285987289
5.6437625083388925,400.998963517355,0.13032259756597034,0.008984102171097384,-0.010682964779747029,0.9532529698919415
5.6537691794529685,402.3433850250686,0.13003398785201586,0.017135627244497083,-0.002350521905187352,0.9681955852069233
5.663775850567045,404.24345116115063,0.1297461674140474,-0.005001861240897174,0.006802430094104634,0.949518925739492
5.673782521681121,406.6883509678151,0.12945914762988842,0.01470221756423701,0.0027944949076658026,1.0088658468352827
5.683789192795197,409.6641735037001,0.1291729398457116,-0.012462425606322028,0.0055076090348971755,0.9790407821796996
5.693795863909273,413.1539869940615,0.12888755537559057,0.03062284278220703,0.00677008905557578,0.9759810296515062
5.703802535023349,417.1379351688414,0.12860300550105258,0.027735645153465157,0.019470845942764412,0.9796149393307132
5.713809206137425,421.5933502404695,0.12831930147063236,-0.0013972839051423938,0.01089927142799756,0.9960019110750465
5.723815877251501,426.494881878584,0.12803645449942774,0.005017744962903379,0.019378255496163267,0.9852993010770029
5.733822548365577,431.8146414478244,0.12775447576865612,-0.0012473593711635539,-0.0043652514651941155,0.9922205048832098
5.743829219479653,437.52236068802637,0.1274733764252124,0.004967369171457251,0.03896226049176151,0.9714463132073464
5.753835890593729,443.5855639339541,0.12719316758122862,-0.0018061825694909838,0.0037918999003229755,0.9537698535337944
5.763842561707805,449.9697528946799,0.12691386031363436,-0.005893865180482136,-0.027418331177325832,0.9855234703025038
5.773849232821881,456.63860294126476,0.1266354656637191,0.007098508756509492,-0.010486040835305799,0.9728641258004127
5.783855903935957,463.5541697858911,0.1263579946366956,-0.0648051020903637,-0.021692867126784726,0.9720076894093433
5.793862575050033,470.67710537650663,0.12608145820126485,0.004836927747034368,-0.005522025169850397,1.03111924467596
5.803869246164109,477.96688177857163,0.12580586728918264,0.008430157787213996,-0.022709788918941282,0.9774594330829907
5.813875917278185,485.38202177007736,0.12553123279482725,0.0034357228202362344,0.013484922175582182,0.9640121904776963
5.823882588392261,492.8803348378075,0.1252575655747688,0.001353118099175904,0.0015491955675342912,0.9902466397358295
5.833889259506337,500.41915723206,0.12498487644734012,0.013100120035260055,0.017161121763221505,0.9765097097789225
5.8438959306204135,507.9555947139899,0.12471317619220913,-0.017419478105196087,0.0065518571180534745,1.019598843392437
5.8539026017344895,515.446766614378,0.1244424755499526,-0.015049188705487906,-0.014688361984402163,0.9586964605739644
5.863909272848566,522.8500498151916,0.12417278522163164,-0.02959641388890276,-0.0007308815101409486,0.9817696073007144
5.873915943962642,530.1233212657409,0.12390411586836869,0.011053521312668867,0.016764688211260655,0.9697742225795923
5.883922615076718,537.2251976535579,0.12363647811092603,-0.001543088508827254,-0.02742381714031641,0.974745554653195
5.893929286190794,544.1152708663258,0.12336988252928595,0.016766889496261744,0.04403155247174026,0.9838902822121727
5.90393595730487,550.754337905143,0.1231043396622325,0.025121315622515055,-0.016985527713855815,1.0117366803439838
5.913942628418946,557.1046239409457,0.12283986000693495,-0.03632388885450076,0.0390429747473267,0.9514772465041252
5.923949299533022,563.1299972449694,0.12257645401853265,-0.06779383704473368,-0.015095990901371327,1.0180025238109578
5.933955970647098,568.7961747703248,0.12231413210972196,-0.02048986853681713,-0.00024892002108605003,0.9313343756257381
5.943962641761174,574.0709172149814,0.12205290465034446,0.014064255851397998,-0.01321066263272396,0.9460223957025885
5.95396931287525,578.9242124562982,0.12179278196697711,-0.0255739013964817,-0.012705108062073268,0.9953559107300227
5.963975983989326,583.3284463133878,0.12153377434252395,-0.016340189191793038,-0.0025405089670296867,0.9776935628787128
5.973982655103402,587.2585596657248,0.12127589201580968,0.036280707556582185,0.00267694885414854,0.9500328923004159
5.983989326217478,590.6921910340214,0.1210191451811749,0.021201866715606806,-0.019519666014025,0.9613382803958307
5.993995997331554,593.6098038121182,0.12076354398807301,-0.005020447124713967,-0.007362513336013807,0.9756165373509129
6.00400266844563,595.9947974259713,0.12050909854066919,-0.0036276118343771917,-0.00696072374912662,0.9757036323850063
6.014009339559706,597.8336017872604,0.12025581889744077,-0.019468354662335097,0.008671155231649198,0.9181372926609871
6.024016010673782,599.1157545042036,0.12000371507077978,0.011319347777716116,0.004419957156018853,0.9852333245583086
6.034022681787858,599.8339604102616,0.11975279702659701,-0.027197701162047394,-0.0179519407350004,0.9870292485368144
6.044029352901934,599.9841330720282,0.11950307468392815,-0.0019088832349624055,-0.02634928667683538,0.9871374730263948
6.0540360240160105,599.5654180401364,0.11925455791454163,-0.019111496853304207,0.060120583047620614,0.9928669106371614
6.0640426951300865,598.5801977108874,0.11900725654254835,-0.0024274617196096636,-0.005612862609501181,0.9969605602038663
6.074049366244163,597.03407777094,0.11876118034401341,-0.009343760576424099,0.040803222665459896,0.9873660233009072
6.084056037358239,594.9358553021882,0.11851633904656958,0.002312245654935972,-0.004425298292973226,0.9646271343053231
6.094062708472315,592.2974687283038,0.11827274232903282,-0.019052103647933794,0.023846004327078438,0.9629452966877619
6.104069379586391,589.133929887734,0.11803039982101957,-0.015749679395107363,0.00022313727157697802,0.9477706083560409
6.114076050700467,585.4632386196481,0.11778932110256621,-0.008900953651682631,-0.0431462255193123,0.9701711216662533
6.124082721814543,581.3062803488185,0.11754951570375019,-0.017515453713254962,0.006599690054119464,0.9670261413629431
6.134089392928619,576.6867072521516,0.11731099310431346,-0.005729902988567736,0.02388244940918435,1.0209193782979396
6.144096064042695,571.630803683014,0.11707376273328768,0.012011065196342017,0.0037520484565168434,0.9599797162211241
6.154102735156771,566.1673366190493,0.11683783396862135,0.01659015295784405,0.015341507528166059,0.9611195137480807
6.164109406270847,560.3273919844116,0.11660321613680934,-0.005934976258933508,0.00922977483874729,0.9754545366070968
6.174116077384923,554.1441977777079,0.11636991851252393,0.014150553258502892,-0.011633615063985765,0.9809346932062503
6.184122748498999,547.6529350119998,0.1161379503182484,0.004994333317650205,0.01860807226807879,0.9879422920642409
6.194129419613075,540.890537542594,0.1159073207239123,0.028729507520133743,0.0019100889165785276,0.9744133382416066
6.204136090727151,533.8954819215363,0.11567803884652902,0.012857395107225604,0.01951385645741526,0.9586723404204913
6.214142761841227,526.7075684745078,0.11545011374983545,0.00098402492528901,-0.0037955047955079064,0.9764892859135585
6.224149432955303,519.3676948457405,0.11522355444393353,0.007495577376452704,0.005772439559158004,0.9806072778291121
6.234156104069379,511.9176232994257,0.1149983698849342,0.023295310397887316,0.009051019334624367,0.9634963530303717
6.244162775183455,504.39974310163467,0.11477456897460328,-0.017648098340462957,-0.02497888154785185,0.9783907726712125
6.2541694462975315,496.8568293347275,0.11455216056000965,0.006827111141139587,-0.0007301059371003113,1.0239043547475268
6.2641761174116075,489.33179951655825,0.11433115343317542,-0.020080848612108806,-0.020230383686081797,0.9934758780814685
6.274182788525684,481.8674694092542,0.11411155633072845,-0.0064001253427423445,0.02061377793694441,0.9912131357054011
6.28418945963976,474.5063094069554,0.11389337793355697,0.008105075171135548,0.005334271574490893,0.983023556275241
6.294196130753836,467.29020288863217,0.11367662686646637,0.028750683966237495,-0.033560494528161774,0.9622230582351824
6.304202801867912,460.2602079108802,0.11346131169783832,0.007272252515681427,0.015377390426459716,0.9636224567088807
6.314209472981988,453.4563235966241,0.113247440939292,-0.022921234298320794,-0.0021499755760744986,0.9970143765605554
6.324216144096064,446.91726254892046,0.11303502304534765,0.0006879263446041316,-0.02750664822773584,0.9704361598053888
6.33422281521014,440.6802305847702,0.11282406641309237,-0.01686939060814565,0.019955728051576957,0.9611615738769691
6.344229486324216,434.7807150422165,0.1126145793818481,-0.02701913908216016,0.012688794945742566,1.0007078046602973
6.354236157438292,429.2522828652105,0.11240657023284206,0.01915372363705143,0.009164025459729221,0.979751743227147
6.364242828552368,424.1263896150896,0.11220004718887938,-0.006776364722265303,0.010474169177954445,0.9387346721786574
6.374249499666444,419.4322004953665,0.11199501841401792,0.03582203747612449,-0.024363193552757526,0.9881285368004539
6.38425617078052,415.19642440814226,0.11179149201324566,0.029996903790562728,-0.017597324606549763,0.9700079026038735
6.394262841894596,411.4431619863377,0.11158947603216027,-3.7850465274852736e-05,0.003248298993392277,1.0040659771035603
6.404269513008672,408.1937684664018,0.11138897845665102,-0.0005531607547204362,-0.02737339818877389,0.9893623089164961
6.414276184122748,405.46673218171804,0.1111900072125832,0.003021109679053602,0.008339661523965642,0.960603721841086
6.424282855236824,403.2775693680619,0.11099257016548462,0.04112819668168723,0.006391857516417176,0.9701624335539208
6.4342895263509,401.6387358796357,0.11079667512023486,-0.003093884514542637,0.002265758174833604,0.9819572390448272
6.444296197464976,400.55955631800236,0.11060232982075666,0.031527522643921925,0.0005083816560105401,0.9995978214497376
6.454302868579052,400.04617097715663,0.1104095419497097,0.021329762829430676,-0.025524016958372225,0.9782743108412627
6.4643095396931285,400.1015009066044,0.11021831912818714,-0.009406746811728695,0.021094553884171918,0.9655393207654864
6.4743162108072045,400.72523129123465,0.11002866891541406,-0.013714080135922837,-0.03092979671330755,0.9800655744554648
6.484322881921281,401.913813242548,0.10984059880844887,-0.0034378011437281955,-0.02408083098758134,0.9620429186803933
6.494329553035357,403.66048399105074,0.10965411624188684,-0.005727888150627564,-0.03500908462541968,0.9656488848868331
6.504336224149433,405.95530536492316,0.10946922858756615,-0.005711109816353014,-0.004830369356976857,0.9867342616795923
6.514342895263509,408.78522033602894,0.10928594315427662,-0.025092788503713947,-0.020471428176186805,0.9622334452110861
6.524349566377585,412.1341273115278,0.10910426718747065,0.005516951598960331,-0.0046099508189097645,0.9920863136045098
6.534356237491661,415.98297174839365,0.10892420786897689,-0.01871755507296013,-0.008685540343003438,0.9855617087262186
6.544362908605737,420.3098545695669,0.1087457723167163,-0.0035135134898535507,0.00876196404730734,0.9375604456813077
6.554369579719813,425.09015676487735,0.10856896758442075,-0.037800960301229015,0.018462535660794574,0.9788887313491244
6.564376250833889,430.296679467792,0.1083938006613542,-0.02211556832746413,0.0056259986846427254,0.9732051906468442
6.574382921947965,435.8997987109735,0.10822027847203647,0.0064041889416075115,-0.0012840014042321771,0.981513324670242
6.584389593062041,441.8676339801271,0.10804840787596937,0.014285653745757108,-0.00570629343530038,0.9412890266086249
6.594396264176117,448.16622960710845,0.10787819566736565,-0.020096954313553576,0.026601029007335547,0.9455391444976057
6.604402935290193,454.75974797019154,0.10770964857488036,0.032343192492803,-0.03455955433194572,0.957243711614922
6.614409606404269,461.61067340224645,0.1075427732613449,0.00018992917454832678,0.0028175297678506295,0.9896096300413076
6.624416277518345,468.6800256466199,0.10737757632350364,-0.013060090365678453,0.018871765707999845,0.9715476168213705
6.634422948632421,475.9275816462075,0.10721406429175309,-0.046781456252877884,0.002052324408142278,0.976962725478567
6.644429619746497,483.3121044037932,0.10705224362988372,0.001334337852878154,0.01599977605031928,0.973906773585748
6.654436290860573,490.7915776114752,0.10689212073482457,0.001570098398623087,-0.034176585057243074,0.9682282399431911
6.6644429619746495,498.32344471420714,0.10673370193639029,0.011929226880185582,-0.02407812505744146,0.9574822776822601
6.6744496330887255,505.86485104722084,0.1065769934970309,-0.005024588275438286,0.022487080653277293,0.9789546855567125
6.684456304202802,513.3728876696268,0.10642200161158426,-0.01847718829308748,0.0016703301708583798,0.9710767553903448
6.694462975316878,520.8048355068416,0.10626873240703118,0.019462117857060996,0.01074310665491214,1.0061939653012635
6.704469646430954,528.1184084127062,0.10611719194225319,-0.024505175644463733,0.0008844239745333767,1.0125512655406121
6.71447631754503,535.2719937683491,0.10596738620779309,-0.02470508430367502,-0.016644237589930957,0.9654422902867498
6.724482988659106,542.2248892488186,0.10581932112561807,-0.011790298367496217,0.002544217103771201,0.9596877919874517
6.734489659773182,548.937534410345,0.10567300254888558,-0.007677423294105367,0.01820389050104056,0.9371758797927857
6.744496330887258,555.371735780556,0.1055284362617121,-0.004469877365313081,0.01852518274509987,0.99839458353844
6.754503002001334,561.4908841709165,0.10538562797894432,-0.01169623186794966,-0.010579204309707583,0.9846385516867401
6.76450967311541,567.2601629749516,0.10524458334593331,-0.006548091769319515,0.013471990223337442,0.9468009380289533
6.774516344229486,572.6467462670671,0.1051053079383114,-0.02124156525847642,-0.0065142617597532025,0.9820847219615833
6.784523015343562,577.6199855748333,0.10496780726177157,0.005497283461029925,-0.04498603016020649,1.0079997544014239
6.794529686457638,582.1515842620458,0.1048320867518501,-0.020110755078527123,0.007634551943279717,0.9722942238323377
6.804536357571714,586.2157585303507,0.10469815177371147,-0.0032745893975352344,0.01914271379110874,0.9484381684161025
6.81454302868579,589.789384123377,0.10456600762193632,0.0118374003183329,-0.0017386999275348335,0.980654032441597
6.824549699799866,592.852127898664,0.10443565952031221,-0.008746243224334602,0.010164292467515774,1.0031527300828058
6.834556370913942,595.386563518761,0.10430711262162708,0.007819782847492586,-0.01821845302689969,0.9699872715237711
6.844563042028018,597.3782706032504,0.10418037200746555,0.03517686795983499,0.018316774067787117,0.9782237012475751
6.854569713142094,598.8159167775352,0.10405544268800802,-0.032053653847173395,-0.031842599030651744,0.9653972328184246
6.8645763842561704,599.6913221515541,0.1039323296018327,-0.0013550024807414357,-0.01327258138646438,0.9926432178570459
6.8745830553702465,599.9995058615547,0.10381103761572026,0.0024099246862505567,0.0039110258978033215,0.9459244848284047
6.8845897264843225,599.7387144101108,0.10369157152446154,-0.03521386312979028,-0.017727649955686663,0.9829605400783591
6.894596397598399,598.9104316431366,0.10357393605066795,-0.006225035161130621,-0.002312765083747349,0.9410308881134147
6.904603068712475,597.5193703071299,0.10345813584458483,0.003175263477545538,-0.004909452259967638,0.9748715628420156
6.914609739826551,595.5734452346836,0.10334417548390756,0.03628476933415953,-0.0039406664296178515,0.9586683282225906
6.924616410940627,593.0837283108303,0.10323205947360065,-0.0025539955012342,0.010472105998990122,0.990705860561811
6.934623082054703,590.064385476457,0.1031217922457196,-0.004033404024485032,0.032404921817929415,0.9896164664943908
6.944629753168779,586.5325961272198,0.10301337815923581,0.0069626915103488205,0.05819768260121987,0.9757212407826995
6.954636424282855,582.5084553665675,0.10290682149986413,-0.03032082974109902,0.0268374911992297,0.9841428705160343
6.964643095396931,578.0148596690311,0.10280212647989351,-0.03051563033037371,-0.02936719472017465,0.9954800339884917
6.974649766511007,573.077376604324,0.10269929723802046,-0.012799361798600773,-0.011694214146305204,0.9874151608376751
6.984656437625083,567.7240993635035,0.10259833783918548,-0.021802494290057272,0.006296674268652213,0.975859449639938
6.994663108739159,561.9854869149038,0.10249925227441237,0.0030196200716972516,-0.0017637249468249914,0.9476396784900326
7.004669779853235,555.8941906993113,0.10240204446065038,0.01245788665518889,0.018427022897090844,0.9652463426492317
7.014676450967311,549.4848688504628,0.10230671824061943,-0.03051966964703093,0.01590533382838244,1.0026014880375758
7.024683122081387,542.7939889978956,0.10221327738265829,0.0047360421208627185,0.03968062874214234,0.9807852522318489
7.034689793195463,535.8596207741687,0.10212172558057539,-0.015062882752762798,0.03546706755314302,0.9925433687426346
7.044696464309539,528.721219207042,0.10203206645350303,0.017593030447272128,0.003062146135574743,0.960160951857436
7.054703135423615,521.4194002290543,0.10194430354575418,0.02569212976684045,-0.009318889417982713,0.9601105605463546
7.064709806537691,513.9957095818188,0.1018584403266824,-0.0027046135156895057,-0.0027300032604973584,0.9648099925643935
7.0747164776517675,506.4923864299,0.10177448019054473,0.010828824518510286,0.0030133090879910372,0.9852069416777891
7.0847231487658435,498.9521230292734,0.10169242645636745,-0.01487953669723175,-0.0017357615036295965,0.959772596474231
7.09472981987992,491.41782181779496,0.10161228236781492,-0.018881384879871323,-0.05076987119593587,0.9427628475073916
7.104736490993996,483.93235130977473,0.10153405109306135,0.027577709306850443,0.020935045194109464,0.9801910287299871
7.114743162108072,476.53830218357894,0.1014577357246655,0.02448783300334064,0.01360411094245243,0.9796432143040772
7.124749833222148,469.2777449500465,0.10138333927944856,-0.02841266355608525,-0.006748454039570726,0.9877437884003727
7.134756504336224,462.1919905805514,0.10131086469837473,0.007497954399599854,-0.012973173635491185,0.9815649540987758
7.1447631754503,455.32135545667717,0.1012403148464351,-0.01311241849549288,-0.015940357698378232,0.9786191146111187
7.154769846564376,448.7049319788814,0.1011716925125343,-0.029917393426025618,0.027370497731859494,1.0002825905499961
7.164776517678452,442.3803661393532,0.10110500040938031,0.01302618164855959,-0.009684796410581628,0.9619255769087736
7.174783188792528,436.3836433246059,0.10104024117337718,-0.007402213222319006,0.007825084238574347,1.0012349782300125
7.184789859906604,430.7488835665555,0.10097741736452084,0.010290566309117222,-0.0236831112033674,0.9661454087789404
7.19479653102068,425.5081474070571,0.10091653146629789,0.003993520668894086,0.002800039827729301,1.0064693909165607
7.204803202134756,420.6912534804798,0.10085758588558745,-0.0053616096848185585,-0.0012618546002896543,0.9668154124637804
7.214809873248832,416.32560885224746,0.10080058295256594,-0.026785947082211485,-0.008812218155796043,0.9899062111799476
7.224816544362908,412.43605307867415,0.10074552492061509,0.009281423845342713,-0.0026950392028858533,0.9386613475656659
7.234823215476984,409.04471687535784,0.1006924139662327,-0.011321155172297237,0.057036719552024454,0.9881658242262491
7.24482988659106,406.17089619828573,0.10064125218894676,-0.018693895825601336,0.008385750697903425,0.9617796407607715
7.254836557705136,403.83094245409313,0.10059204161123236,-0.00690040031370683,-0.00633845639417202,0.9773956804873857
7.264843228819212,402.0381694641623,0.10054478417843178,-0.025670116525448344,0.0004954596855320386,0.9448859354434471
7.2748498999332885,400.802777711912,0.10049948175867754,-0.0012647835923192776,0.009814272135933175,0.9842917952396343
7.2848565710473645,400.13179630429215,0.10045613614281856,0.018226221766745137,0.022409177181912054,0.9604148247385027
7.2948632421614406,400.02904297771516,0.1004147490443495,0.007209420614495956,-0.00022160596632403697,1.0087339953524863
7.304869913275517,400.49510237597576,0.10037532209934276,0.0366243606371408,0.011383516981849098,1.0086021330949015
7.314876584389593,401.5273227237568,0.10033785686638408,0.012540179528704506,0.005804646411973313,0.9881129081916797
7.324883255503669,403.1198309146466,0.10030235482651076,0.03184331342283777,0.002433873236045174,0.9657986461416679
7.334889926617745,405.26356592782145,0.10026881738315313,0.015302344755219324,-0.02210091330468652,0.9637866882301311
7.344896597731821,407.94633038325674,0.10023724586207913,0.0076823325209197536,-0.013247570564195012,0.953942575248367
7.354903268845897,411.15285994213417,0.1002076415113419,-0.016209668215991267,-0.002848637737606851,0.9750725529565337
7.364909939959973,414.86491015756695,0.10018000550123032,-0.0339405093413764,0.03551605208780889,1.0018380975981231
7.374916611074049,419.0613602814825,0.10015433892422293,0.015362388151738068,-0.004912348312296706,0.9989760499132723
7.384923282188125,423.71833343702923,0.1001306427949446,-0.015154469203837118,0.02032524532882711,0.9879326482005657
7.394929953302201,428.80933247274356,0.10010891805012653,-0.00874411031712184,0.007844232895389014,0.9517830077814723
7.404936624416277,434.3053907255078,0.10008916554856909,0.011160928775106277,-0.011378697840905871,0.9747578561593675
7.414943295530353,440.1752368344819,0.10007138607110802,-0.005841172236002747,-0.00036884474986332265,1.0185360794594212
7.424949966644429,446.38547266825685,0.1000555803205834,0.0027767814468725627,-0.007503829266929384,0.965372722489101
7.434956637758505,452.9007633528685,0.10004174892181206,-0.008297517174218174,0.0009405407490138132,0.9995640220453457
7.444963308872581,459.68403831944636,0.10002989242156268,-0.015414722835494832,0.026306846372223115,0.972987760897134
7.454969979986657,466.69670222758236,0.10002001128853434,0.0034057048482787917,0.007664824502843109,0.9625596591556405
7.464976651100733,473.8988545643212,0.10001210591333787,0.01664194975530644,0.009396130998295902,0.9427531343417741
7.474983322214809,481.24951666928473,0.10000617660848049,-0.015278490045730326,-0.02730981655797372,0.9944957900872773
7.4849899933288855,488.7068648942279,0.10000222360835342,-0.01149232040076926,0.007027052107208211,0.9899077785383866
7.4949966644429615,496.2284685703829,0.10000024706922264,0.008032786820940196,-0.037342499745676466,0.9995487554445237
7.505003335557038,503.7715314296159,0.10000024706922264,-0.0209180673618031,0.012645234144413,0.9659594105518929
7.515010006671114,511.29313510577094,0.10000222360835342,0.017814368292735763,0.010066768722387076,0.9590240134511114
7.52501667778519,518.7504833307141,0.10000617660848049,-0.0006835244565718328,-0.01871003215231515,1.0119084100724904
7.535023348899266,526.1011454356777,0.10001210591333787,-0.032468795183398444,-0.011256641688819473,0.9812595391732529
7.545030020013342,533.3032977724165,0.10002001128853434,0.0021813467406343106,0.0100637407978151,0.9522606649632314
7.555036691127418,540.3159616805526,0.10002989242156268,0.010849070163578094,-0.03165193900765285,0.9637373539835641
7.565043362241494,547.0992366471305,0.10004174892181206,-0.022379026331129488,-0.024067030567682463,0.974544207646119
7.57505003335557,553.6145273317422,0.1000555803205834,0.005916019404782383,0.0034657559452928805,0.96897682263029
7.585056704469646,559.8247631655172,0.10007138607110802,-0.054826109025262734,-0.042507904999362654,0.9736437571199759
7.595063375583722,565.6946092744914,0.10008916554856909,-0.029719238044871723,-0.012488265390694786,0.9647134781505463
7.605070046697798,571.1906675272556,0.10010891805012653,-0.008271676995573051,0.028308688138685874,1.0198095972120647
7.615076717811874,576.2816665629705,0.1001306427949446,0.021351789800000853,0.026604687994022855,1.0095140341341522
7.62508338892595,580.9386397185168,0.10015433892422293,0.020553122046766167,-0.0031532940847210367,0.9612694610883918
7.635090060040026,585.1350898424324,0.10018000550123031,0.01291219260766764,-0.006641140627830732,0.9696333573561546
7.645096731154102,588.8471400578653,0.10020764151134189,-0.00018571199839997337,-0.01811617536302845,1.0186819939807252
7.655103402268178,592.0536696167428,0.10023724586207913,0.017611341559489437,-0.006467477175300694,1.004325804470264
7.665110073382254,594.7364340721782,0.10026881738315313,-0.028819329354619217,-0.0048003781975469026,0.9563206047673207
7.67511674449633,596.880169085353,0.10030235482651076,-0.004401699880776903,0.03752307818906641,1.0079920803364437
7.685123415610407,598.4726772762431,0.10033785686638408,0.0165231387860079,-0.017699767050903273,0.9645986235141065
7.695130086724483,599.5048976240242,0.10037532209934276,0.03329216534794229,0.013214316271213682,0.9692384695736034
7.7051367578385594,599.9709570222848,0.1004147490443495,0.016893275466650017,-0.03284739907263067,0.970340537830275
7.7151434289526355,599.8682036957078,0.10045613614281856,0.020283976074960516,-0.004643468004832478,0.991047853603303
7.7251501000667115,599.1972222880881,0.10049948175867753,0.013618956140595636,0.032170298148637595,0.9855122197962853
7.735156771180788,597.9618305358377,0.10054478417843178,-0.030748503419004713,-0.028837729677127066,0.9806843732718896
7.745163442294864,596.169057545907,0.10059204161123236,0.01582055453734907,0.05222390320037945,0.9904196976629681
7.75517011340894,593.8291038017144,0.10064125218894676,-0.0026750125292404996,0.004998935921690805,0.9467821978009272
7.765176784523016,590.9552831246424,0.10069241396623269,-0.015070381122844874,0.008808808315238415,0.9966050119846546
7.775183455637092,587.5639469213261,0.10074552492061509,0.01208985901628168,-0.004501755373204512,0.9970393570250609
7.785190126751168,583.6743911477528,0.10080058295256594,0.013174476490087232,0.00980640851011381,0.9934164746051238
7.795196797865244,579.3087465195205,0.10085758588558744,-0.009902953423073107,-0.004589182927471245,1.0170960647926295
7.80520346897932,574.4918525929431,0.10091653146629789,-0.027139747341417785,0.016518148804966163,0.9850729412069468
7.815210140093396,569.2511164334448,0.10097741736452084,-0.00029261784039759695,0.02089211926774717,0.9750351779640939
7.825216811207472,563.6163566753945,0.10104024117337718,-0.008085093030502793,-0.030106258720413375,0.9313789546364067
7.835223482321548,557.6196338606471,0.10110500040938031,0.02269026038529453,-0.012294319157844954,1.0000964007718154
7.845230153435624,551.2950680211189,0.1011716925125343,-0.0036484675330161597,-0.04560680180982984,0.9555205406996955
7.8552368245497,544.6786445433232,0.10124031484643509,-0.00632590252473595,0.02568381157923013,1.0122692503662594
7.865243495663776,537.8080094194489,0.10131086469837472,0.010969187626998294,-0.03760515669659041,0.9750998856836609
7.875250166777852,530.7222550499539,0.10138333927944855,0.010561251723477253,-0.021842921535496267,0.975482970264806
7.885256837891928,523.4616978164215,0.10145773572466549,0.050322335309476475,-0.0008051440302081607,0.9963193291970349
7.895263509006004,516.0676486902257,0.10153405109306134,-0.009824945447589106,0.01734996170783334,0.9680575729844032
7.90527018012008,508.58217818220544,0.10161228236781492,0.009775008375879976,-8.317834477922802e-05,0.9809157577937065
7.9152768512341565,501.047876970727,0.10169242645636745,-0.028516597470185912,0.0084082653999889,0.9589704129003306
7.9252835223482325,493.50761357010043,0.10177448019054472,-0.018974155729492147,-0.00792718828288677,0.9631612461907648
7.935290193462309,486.00429041818165,0.1018584403266824,-0.009852158667428064,0.012838039555225965,1.012031191400372
7.945296864576385,478.58059977094615,0.10194430354575418,0.006172748807595226,0.0130277861615741,0.976178894991188
7.955303535690461,471.2787807929584,0.10203206645350302,-0.004155350530002453,0.019504547587474743,0.9907297137998328
7.965310206804537,464.14037922583174,0.10212172558057538,-0.030949790817890333,-0.02844501112884999,0.9653581220838725
7.975316877918613,457.2060110021048,0.10221327738265827,0.002476091070370563,-0.021291805160954233,0.9653974816982038
7.985323549032689,450.5151311495375,0.10230671824061943,0.007276832416959136,0.019419137033563075,1.0006744907016973
7.995330220146765,444.1058093006891,0.10240204446065038,0.017698534828112646,0.02074031646037117,0.9889143608363022
8.005336891260841,438.0145130850965,0.10249925227441237,0.0009356061912773753,0.007858904412646795,0.9929168672181711
8.015343562374916,432.27590063649734,0.10259833783918547,0.00850123150655502,0.04053848609823382,0.9951176735404544
8.025350233488993,426.9226233956764,0.10269929723802046,0.013018752837258434,0.007357182984123687,0.9741985544387187
8.035356904603068,421.9851403309696,0.10280212647989348,0.010006668595908982,0.0037399794129036,0.9888954580633519
8.045363575717145,417.4915446334327,0.10290682149986413,0.030692682534843488,-0.005347233553369674,1.0002754982897315
8.05537024683122,413.4674038727808,0.1030133781592358,-0.0271367926748581,-0.0174387299080108,0.9779125397143069
8.065376917945297,409.93561452354317,0.1031217922457196,0.001357166549654866,-0.006866417577381584,0.9749198907127323
8.075383589059372,406.9162716891698,0.10323205947360062,0.02923875710328481,0.0028585095559941123,0.9886752025649872
8.08539026017345,404.42655476531655,0.10334417548390756,-0.023415305971484116,0.015813197163007008,0.9756100327320656
8.095396931287524,402.4806296928704,0.10345813584458483,0.004046465538218402,0.004691017148137209,0.9786784670141501
8.105403602401601,401.08956835686354,0.10357393605066795,0.045862918357792395,-0.006961647706230485,0.982356405914473
8.115410273515677,400.26128558988927,0.10369157152446154,-0.020299022839603317,0.03428315246774319,0.9706176919349094
8.125416944629754,400.0004941384453,0.10381103761572025,-0.005559016512313692,-0.017853376447882232,0.985701636103585
8.135423615743829,400.3086778484458,0.10393232960183268,-0.008476873333346617,-0.05282414686575783,0.9918140900009029
8.145430286857906,401.1840832224647,0.10405544268800801,0.020220060952850366,0.0310850818955057,0.9378084664862698
8.15543695797198,402.6217293967494,0.10418037200746552,0.03045382275277193,-0.0027816504180352697,0.9683753650340434
8.165443629086058,404.61343648123886,0.10430711262162706,-0.0248534284182993,0.027245219994776304,0.9908068003856799
8.175450300200133,407.14787210133557,0.10443565952031218,-0.039265140871576384,-0.013391535585902758,0.9651730909310577
8.18545697131421,410.21061587662285,0.1045660076219363,0.009553611549044765,0.041208151565543125,0.9838072222733587
8.195463642428285,413.7842414696487,0.10469815177371145,-0.03900024034381093,-0.025051905146226655,0.9584235547198093
8.205470313542362,417.8484157379539,0.1048320867518501,0.006444785338535197,0.015370411895296726,0.9778553317734713
8.215476984656437,422.380014425166,0.10496780726177155,-0.012445013356209567,-0.014961482095874518,0.9920463733719439
8.225483655770514,427.35325373293256,0.10510530793831138,0.004271071139751822,-0.03447545746824682,0.9673898893296532
8.23549032688459,432.7398370250475,0.10524458334593331,0.013213834584799281,-0.011528265045422967,0.9870962006837266
8.245496997998666,438.50911582908316,0.1053856279789443,-0.010340413067203466,-0.004719146815820792,0.9622991525751021
8.255503669112741,444.6282642194436,0.10552843626171209,0.014162949426930332,-0.01679458507905914,0.9742360466472907
8.265510340226818,451.06246558965455,0.10567300254888556,0.03330110806911613,0.005998800954356972,1.0107403341869134
8.275517011340893,457.77511075118036,0.10581932112561804,0.040397176939938335,0.020001447512760024,0.9902906320265866
8.28552368245497,464.7280062316505,0.10596738620779309,-0.047106577529513034,-0.029485144071038586,0.9819019447401318
8.295530353569045,471.88159158729263,0.10611719194225316,-0.0010105321099142454,0.0152013958834674,0.9616985659737344
8.305537024683122,479.19516449315796,0.10626873240703116,0.007312255905472563,0.006370284446862495,0.9947582135317453
8.315543695797198,486.627112330372,0.10642200161158423,0.002007001327906345,-0.01559395261840534,0.9890628513100224
8.325550366911274,494.1351489527787,0.1065769934970309,-0.00857595236689971,0.014969584615166906,1.007415048546157
8.33555703802535,501.6765552857917,0.10673370193639026,0.025736036694017334,0.03819762977985241,0.9927006261967658
8.345563709139427,509.20842238852435,0.10689212073482457,-0.018117404173841802,0.009024944707885544,0.980625345247077
8.355570380253502,516.6878955962056,0.10705224362988368,0.0350669248250452,-0.023427417434936197,0.979422563598338
8.365577051367579,524.072418353792,0.10721406429175306,-0.01001714004607981,-0.0033457564902191817,1.0337763904386899
8.375583722481654,531.319974353379,0.10737757632350363,-0.027419444354076967,-0.017526891985425296,0.9701651155347876
8.38559039359573,538.3893265977531,0.1075427732613449,0.004640463408550784,0.024171303022201943,0.977422845992221
8.395597064709806,545.2402520298074,0.10770964857488034,-0.002517927164766351,-0.0005803915274020636,0.9578066056323983
8.405603735823883,551.8337703928912,0.10787819566736563,-0.02924801160865853,0.026586434114559476,0.9742121518307926
8.415610406937958,558.1323660198719,0.10804840787596937,-0.04577290384398989,-0.009523520370324062,0.9990209590601302
8.425617078052035,564.1002012890261,0.10822027847203647,0.031156807039693275,-0.011424137933091097,0.9736902805980707
8.43562374916611,569.7033205322072,0.10839380066135418,0.03558802343308988,-0.0008509497404286788,0.9418532863510286
8.445630420280187,574.9098432351224,0.10856896758442074,0.02348603091590719,-0.014071078983926098,0.9574535958137883
8.455637091394262,579.6901454304324,0.10874577231671625,-0.009310468491131504,-0.0015515330476080478,1.0182561154257028
8.46564376250834,584.0170282516061,0.10892420786897689,-0.00868472764109304,-0.00966988912353017,0.988260291520317
8.475650433622414,587.8658726884717,0.1091042671874706,-0.013133862855002329,0.03281326549468818,0.9576725995177459
8.485657104736491,591.214779663971,0.1092859431542766,0.028227944218831097,0.016626328118842564,0.9535181964312291
8.495663775850566,594.0446946350764,0.10946922858756611,0.012328099701607528,-0.006853532798980028,0.9604255285335834
8.505670446964643,596.3395160089491,0.10965411624188684,-0.029607530425010783,-0.012961077752804482,0.9641928268065199
8.515677118078719,598.0861867574516,0.10984059880844886,-0.019073800907833706,0.015644922818361134,0.9664804861088926
8.525683789192795,599.2747687087654,0.11002866891541405,0.04667889605845968,0.011639549898618404,0.9848039033169733
8.53569046030687,599.8984990933956,0.11021831912818712,-0.015772840749185925,-0.029775998934015988,0.9595259904523126
8.545697131420948,599.9538290228434,0.1104095419497097,0.024885161188325813,-0.025257541265171865,0.9898404397052418
8.555703802535023,599.4404436819977,0.11060232982075663,-0.052043906798107865,-0.00578585480550118,0.969092120182546
8.5657104736491,598.3612641203645,0.11079667512023486,-0.015290330283521674,-0.0031343500210165567,0.9708670627906847
8.575717144763175,596.7224306319382,0.11099257016548458,-0.01304486230980687,-0.01652084696893508,0.9522401019134661
8.585723815877252,594.533267818282,0.11119000721258318,-0.00042555545985141393,0.0011211149529040366,0.951899361358168
8.595730486991327,591.8062315335986,0.111388978456651,-0.017325084940988597,-0.020862938397034583,0.9812414585245633
8.605737158105404,588.5568380136625,0.11158947603216025,0.012030218849677999,-0.035837586216005565,0.9702387875144469
8.615743829219479,584.8035755918587,0.11179149201324562,0.013123221005643006,0.010043705969132162,0.9434435500222009
8.625750500333556,580.5677995046342,0.1119950184140179,0.016308685073706475,0.031121253740421816,0.9819410501375887
8.635757171447631,575.8736103849108,0.11220004718887935,-0.015681053288446413,-0.009860170706724937,0.9824387748402957
8.645763842561708,570.7477171347898,0.11240657023284203,0.011468278735977198,-0.020136856822951524,0.9750905092413543
8.655770513675783,565.2192849577843,0.11261457938184807,0.02081358845908754,-0.0312075142723826,0.9591585629902347
8.66577718478986,559.3197694152308,0.11282406641309234,0.02282817273744029,0.02452924380278307,0.965614434628665
8.675783855903935,553.0827374510811,0.11303502304534763,-0.017693150070375446,-0.021745746616723568,0.9913414185040615
8.685790527018012,546.5436764033757,0.11324744093929198,0.026539023911025028,0.02918456462084438,0.9599605669104421
8.695797198132087,539.7397920891209,0.1134613116978383,0.018133531359710665,-0.0017347420247566605,0.9877028558358805
8.705803869246164,532.7097971113683,0.11367662686646635,0.03621258204337744,0.003148114262123983,1.000754685983769
8.71581054036024,525.4936905930457,0.11389337793355692,-0.012700308461434467,-0.04219396129244928,0.9741328993354821
8.725817211474316,518.1325305907469,0.11411155633072845,0.015631627020542434,-0.01653821048612005,1.0047098625263382
8.735823882588392,510.66820048344215,0.11433115343317538,-0.0031974994144324032,0.017492152644525447,1.0030720445660586
8.745830553702469,503.143170665273,0.11455216056000964,0.014810982137678227,0.010916721701850459,0.9621099554951656
8.755837224816544,495.60025689836647,0.11477456897460325,0.005203946099300679,-0.016570437533745163,0.9795131810658745
8.76584389593062,488.08237670057474,0.1149983698849342,-0.0066663499056609215,0.005245393939420725,1.0107376803278951
8.775850567044696,480.6323051542613,0.1152235544439335,0.016102384279510995,-0.015845046742954585,1.0197477440808407
8.785857238158773,473.29243152549196,0.11545011374983542,0.001515716330364354,0.007301776484306017,1.0056171386672057
8.795863909272848,466.10451807846476,0.115678038846529,-0.0005698264179203118,0.05321854584173651,0.9738251921178552
8.805870580386925,459.1094624574064,0.11590732072391227,-0.02925308011328861,0.0077295792540451325,1.0012314166359357
8.815877251501,452.3470649880012,0.11613795031824836,-0.001192406530839683,0.0031117876284728597,0.9644692497177363
8.825883922615077,445.85580222229305,0.11636991851252391,0.0005266609597007354,0.008013251212795912,0.9617205004136715
8.835890593729152,439.6726080155887,0.1166032161368093,-0.0019864191187524576,0.0027270598171539413,0.971735693789461
8.845897264843229,433.8326633809511,0.11683783396862135,-0.03479698739895576,-0.03672199773284076,0.9868985818235539
8.855903935957304,428.36919631698674,0.11707376273328762,0.003818841416317942,0.04079137339549346,0.983315466933667
8.865910607071381,423.31329274784866,0.11731099310431345,-0.0012428507580393162,-0.0012651699651657752,0.996010861370409
8.875917278185456,418.69371965118256,0.11754951570375013,-0.0023575479753386876,0.02284459029806238,0.9532785817979028
8.885923949299533,414.5367613803518,0.11778932110256618,-0.0015225722673959047,0.0009133065307742313,0.9949115325185203
8.895930620413608,410.8660701122666,0.11803039982101954,-0.00703241023903722,0.016122031313292456,0.970718421891286
8.905937291527685,407.70253127169644,0.11827274232903282,-0.011491226585069727,0.008890862712783328,0.9936882451650805
8.91594396264176,405.06414469781214,0.11851633904656955,-0.0070711704289672245,-0.0023397899598011644,0.9976289182496704
8.925950633755837,402.9659222290602,0.11876118034401338,0.019483368938948947,-0.00532580202582437,0.9715673458940044
8.935957304869913,401.4198022891126,0.11900725654254832,-0.009505747881251038,0.014578228359026007,0.9610751172312009
8.94596397598399,400.4345819598635,0.11925455791454159,0.021204644895150584,0.001426877920150458,0.9977126438361159
8.955970647098065,400.01586692797184,0.11950307468392814,-0.01250304938241359,-0.025794238731931,0.9527773857811266
8.965977318212142,400.1660395897384,0.119752797026597,0.002445847602524378,-0.021525726423591792,0.9416696512695794
8.975983989326217,400.8842454957962,0.12000371507077973,-0.005162150322342953,0.02737152040701642,1.0044600504638979
8.985990660440294,402.1663982127397,0.12025581889744076,0.010810507544704485,0.01082223178626794,1.0239987497878467
8.995997331554369,404.00520257402854,0.12050909854066913,0.003281174311090326,0.008135303033019316,1.0031122636991447
9.006004002668446,406.39019618788154,0.120763543988073,0.014913149751237212,-0.017879213242905128,0.9420876148205972
9.016010673782521,409.30780896597804,0.12101914518117485,-0.0027327051680556703,-0.01484927372263542,0.9812477802413243
9.026017344896598,412.7414403342747,0.12127589201580968,0.00612740204949838,0.0029184659002394657,0.9783141274821989
9.036024016010673,416.67155368661207,0.12153377434252392,0.03132419781647482,0.0437437913660852,0.9656223501753406
9.04603068712475,421.07578754370195,0.12179278196697711,0.002275178134674534,-0.019259773276383913,0.9915830758495059
9.056037358238825,425.92908278501795,0.12205290465034443,-0.006501917354624872,-0.009749942174166177,0.973007641651757
9.066044029352902,431.20382522967486,0.12231413210972192,0.017649570209017015,0.015797258580371107,0.9940269903473633
9.076050700466977,436.87000275502913,0.12257645401853261,-0.008179056215619585,-0.030907812082300153,0.9625424929876422
9.086057371581054,442.8953760590534,0.1228398600069349,-0.035377649534723894,-0.002138517940783849,0.990941290767656
9.09606404269513,449.24566209485664,0.12310433966223248,0.02752699037504055,0.0100490218777762,0.9981856730990648
9.106070713809206,455.88472913367383,0.12336988252928593,-0.00890130909300719,0.009682302954382573,0.9591065656680432
9.116077384923281,462.7748023464411,0.12363647811092597,0.0408159471646455,0.01414694992430521,0.9986158210084345
9.126084056037358,469.876678734258,0.12390411586836866,-0.024312591635122924,-0.012132530557331718,1.012461256925769
9.136090727151434,477.1499501848066,0.12417278522163158,0.03480347297972822,-0.012396468282917392,0.946898139118843
9.14609739826551,484.5532333856222,0.12444247554995258,-0.0023909882282407845,-0.017151076376239707,0.9529667418128637
9.156104069379586,492.04440528600895,0.12471317619220908,-0.03006629701769468,-0.025344754075042015,0.9589590401600107
9.166110740493663,499.5808427679396,0.12498487644734012,0.013730899504704089,-0.008604348698187311,0.9598259755723114
9.176117411607738,507.1196651621914,0.12525756557476875,0.016118936166392137,-0.022237198953002184,0.9768389498958948
9.186124082721815,514.6179782299215,0.12553123279482725,-0.03503249495178539,-0.028365914717584994,0.9859184568409963
9.19613075383589,522.0331182214279,0.1258058672891826,-0.0004976678413786301,0.010949819100020962,0.9769985131121003
9.206137424949967,529.322894623493,0.12608145820126482,0.009077490375695992,0.026577491019051522,1.0370058334509826
9.216144096064042,536.4458302141079,0.12635799463669556,0.03322914001524345,-0.008193142353014602,0.9996370780880243
9.226150767178119,543.3613970587348,0.12663546566371908,0.009880383904201706,0.02178506453699258,0.9552747325081204
9.236157438292194,550.0302471053185,0.12691386031363436,0.0018761048021307878,-0.0009756800520140839,0.9681364952586681
9.246164109406271,556.4144360660462,0.1271931675812286,-0.010001379232269418,0.0064695787608712585,0.9625631699400095
9.256170780520346,562.4776393119728,0.12747337642521234,-0.0029610592799847748,-0.003412248587552948,0.9636564875534447
9.266177451634423,568.1853585521753,0.1277544757686561,-0.008378779102910386,0.029541417346353068,0.948930307599704
9.276184122748498,573.5051181214152,0.1280364544994277,-0.004641103744577845,-0.019108848161329243,0.9520628095671633
9.286190793862575,578.4066497595298,0.12831930147063236,-0.006419282381313053,0.011629374393690916,0.964475165148622
9.29619746497665,582.8620648311584,0.12860300550105253,0.014788098133013261,-0.03778797307526686,0.9847963538362798
9.306204136090727,586.8460130059383,0.12888755537559057,-0.022894465122637268,-0.007561752624388431,1.0079013524373666
9.316210807204802,590.3358264962994,0.12917293984571154,-0.03104156536122127,0.050756604447200385,0.969104960430791
9.32621747831888,593.3116490321847,0.12945914762988842,0.005626485805777412,-0.02537923615760928,0.9636536782147814
9.336224149432955,595.7565488388489,0.12974616741404738,-0.009837206577679995,-0.018494515075455704,0.9802270183086339
9.346230820547031,597.6566149749315,0.1300339878520158,-0.012753881101788782,-0.004463197676222605,1.0009641406251926
9.356237491661107,599.0010364826448,0.1303225975659703,0.017331385336989375,0.015439435516694694,0.9694509300674173
9.366244162775184,599.7821638997469,0.1306119851468866,0.02345513193537311,-0.032365496197987405,0.961142624540236
9.376250833889259,599.9955527832931,0.1309021391549906,0.01586112827264418,0.017326649756927767,0.9768564571864219
9.386257505003336,599.6399889975394,0.13119304812021065,-0.0007271943496761124,-0.0011718639332357953,1.0054555260223763
9.39626417611741,598.7174956221065,0.13148470054263078,-0.011226384683681083,0.002053230552460034,0.9688026685239283
9.406270847231488,597.2333214411028,0.13177708489294565,-0.0020138391135981555,-0.008261959502863696,0.9876171676842355
9.416277518345563,595.1959110786995,0.13207018961291578,0.006479723088481865,-0.026597238878255967,1.007580449773299
9.42628418945964,592.616856951077,0.13236400311582514,0.015355668239070603,-0.007200537623814752,0.9697544781080679
9.436290860573715,589.510833308134,0.1326585137869384,-0.0012444615903524265,-0.03238517813270955,0.9721627697667431
9.446297531687792,585.8955127402323,0.13295370998396094,-0.02927204603747668,0.04551345211961876,0.9572151237867985
9.456304202801867,581.791465625059,0.1332495800374982,0.004038589288798199,0.016188657750455887,1.0164860104992628
9.466310873915944,577.222043086698,0.13354611225151783,0.020596105436945903,-0.01508226990711033,1.0003915339837532
9.47631754503002,572.2132441328868,0.1338432949038112,-0.025675713049213015,0.012023743025034315,0.9804783438021719
9.486324216144096,566.7935677263818,0.13414111624645755,-0.0027015227951647015,-0.005169008679598653,0.9874009724425094
9.496330887258171,560.9938506321438,0.13443956450628794,0.010461136552350656,0.015474596734589976,0.9623993749641624
9.506337558372248,554.8470919629345,0.1347386278853508,-0.024121591981997686,-0.01718297042405226,0.9761188705672024
9.516344229486323,548.3882654216353,0.13503829456137825,0.024737129539465063,0.04173449282360808,0.9518521865463527
9.5263509006004,541.6541203085771,0.13533855268825354,-0.036595691387460695,0.00618549165313844,0.9932100351979894
9.536357571714476,534.6829724261244,0.13563939039647924,-8.027673129167934e-05,0.00652837499375582,1.00883213946964
9.546364242828552,527.5144860701896,0.13594079579364668,0.014571457446575394,-0.016531216411829985,0.9513722418569703
9.556370913942628,520.189448349136,0.13624275696490554,-0.020588075248887044,-0.003753644042720427,1.0315654019767988
9.566377585056705,512.7495371141089,0.13654526197343564,-0.020317226999958065,-0.008225675403904575,0.9970218866547023
9.57638425617078,505.23708382124653,0.13684829886091793,0.0034855557256248016,-0.005647872778317233,1.0040319255515084
9.586390927284857,497.69483267501323,0.13715185564800808,0.006902684893421138,0.010232891656318712,0.9775828558145013
9.596397598398932,490.1656974231009,0.13745592033480927,-0.009232007971074097,-0.013784389661580326,1.0027695445880738
9.606404269513009,482.69251718664486,0.13776048090134727,0.03470183333716436,0.03214076597604489,0.995093335606742
9.616410940627084,475.3178127150775,0.1380655253080448,0.011975362585781803,-0.030663887966687432,0.9556666091881894
9.62641761174116,468.0835444524105,0.13837104149619833,-0.0008149250792993162,-0.022075289779498054,0.9380383720199416
9.636424282855236,461.0308737915676,0.1386770173884541,-0.016835490848058365,-0.005265546286813139,0.9567107388867722
9.646430953969313,454.1999288751136,0.13898344088928585,-0.03442551322758456,-0.009135554936766977,0.976963187099258
9.656437625083388,447.6295762749709,0.13929029988547292,0.0012522083893166244,-0.031040392356279867,1.037320293275301
9.666444296197465,441.35719985018176,0.13959758224657914,0.005842535196281845,0.0009549228577314127,0.996207959127346
9.67645096731154,435.4184880409869,0.13990527582543216,0.015726495346922116,0.025413632763945922,0.9639539361243799
9.686457638425617,429.8472308094574,0.14021336845860408,-0.027932606002864555,0.04901444631382575,0.9871364156323864
9.696464309539692,424.67512738206096,0.1405218479668916,-0.040029600565567806,0.018376096990675116,0.9358877289930945
9.70647098065377,419.93160588803664,0.1408307021557983,0.002006454822784324,-0.016244708282371276,0.9855495069919104
9.716477651767844,415.6436559198327,0.1411399188160158,0.04910978937736904,0.004566281032099384,0.9722109853111074
9.726484322881921,411.8356749682583,0.14144948572390736,0.03843420407169474,-0.0025454495986165495,0.9693721150648691
9.736490993995996,408.5293296061446,0.14175939064199017,0.015227747482236853,-0.03659367037581677,0.9579225297697008
9.746497665110073,405.7434322103116,0.14206962131941994,-0.02844032369307154,-0.009978944248012912,0.9518019757944731
9.756504336224149,403.49383392329224,0.1423801654924744,-0.014139589666333852,-0.031965899741516555,1.0058689251403965
9.766511007338226,401.7933344638202,0.14269101088503883,0.012868899570033926,0.005874414686129056,1.0046777060792618
9.7765176784523,400.6516092992508,0.14300214520909083,0.02065499853407212,0.01434424834557794,0.9613379263296115
9.786524349566378,400.07515459428197,0.14331355616518626,0.057282456154995956,0.0028831532396549437,0.9950034862212385
9.796531020680453,400.06725024920945,0.14362523144294556,-0.0256650791285327,0.029368787291765647,0.9611597713655852
9.80653769179453,400.62794123801575,0.14393715872154011,-0.006398694671045506,0.027959256535978017,0.9637834279087847
9.816544362908605,401.75403735247767,0.14424932567017956,0.00019928942794412326,0.01928590682479904,0.9676559162299502
9.826551034022682,403.43913135374976,0.14456171994859923,-0.018169384984515195,-0.0216177386881419,0.9939619609566929
9.836557705136757,405.6736354281401,0.14487432920754764,0.006867995077883964,0.0052443466294585595,0.9835942011449639
9.846564376250834,408.44483573966073,0.14518714108927525,-0.02245832275259193,0.05179350503738749,1.013714567987905
9.856571047364909,411.7369647689516,0.14550014322802224,0.0024991129868668248,0.021550457697678133,0.9602915835821052
9.866577718478986,415.5312910269938,0.14581332325050816,0.021944503887491928,-0.0016041491984388895,0.9988415562144214
9.876584389593061,419.8062256331551,0.1461266687764203,0.04190953937328718,-0.022432736095945375,0.9722724104814779
9.886591060707138,424.53744515116864,0.14644016741890367,-0.006468755191187073,-0.027083386276345368,0.9583268877815908
9.896597731821213,429.6980299841216,0.14675380678505034,0.01048609381915674,-0.003920615224390741,0.9781181398779333
9.90660440293529,435.2586175410404,0.1470675744763894,-0.01936278147919259,-0.002326651197664058,0.9669274691235591
9.916611074049365,441.1875693035535,0.14738145808937722,0.0021974112841215703,0.013467862928285732,0.9834932771518661
9.926617745163442,447.4511508421067,0.14769544521588754,0.0008274484347793494,-0.0028784215101282902,1.0118317032243478
9.936624416277517,454.01372375742335,0.14800952344370222,-0.03462165790652802,-0.016022188249326646,0.9351154179487382
9.946631087391594,460.83794845515683,0.14832368035700183,-0.0031593916352954422,0.03111224475621458,0.9856188226734991
9.95663775850567,467.8849965999489,0.1486379035368562,-0.010035088221411597,-0.02317325308368839,0.9511625863928063
9.966644429619747,475.1147720401102,0.1489521805617159,-0.031856586854506944,0.00015016763962735882,0.9728347901465185
9.976651100733822,482.48613894588857,0.14926649900790265,-0.006016023283324451,-0.006540914587036784,0.9807512526073887
9.986657771847899,489.95715586328515,0.14958084645010103,-0.02110088499965445,-0.02236035147678331,0.949560339882246
9.996664442961974,497.4853143516793,0.14989521046184906,0.0015523422287927178,0.02075311212834804,0.98854338206474
10.00667111407605,505.02778084750355,0.1502095786160301,-0.018561865065723816,0.05621749140895465,0.9872314225494563
10.016677785190126,512.5416403777757,0.1505239384853634,0.007242344560010312,0.0056915914214852115,0.9754948763316693
10.026684456304203,519.9841407368474,0.15083827764289603,-0.02382187669605828,-0.037487623380450606,0.9781059782071458
10.036691127418278,527.3129357370351,0.15115258366249365,0.024185846214777686,-0.024792434263185368,0.9802723424796198
10.046697798532355,534.4863261491054,0.15146684411933192,0.012932338005046068,-0.011408252871583193,1.0147742465944525
10.05670446964643,541.4634969616945,0.15178104659038763,0.0011460158767572102,-0.018016761607933668,0.9873430812220767
10.066711140760507,548.2047496097457,0.15209517865492986,-0.013182427850489984,0.013758045090656479,0.9842592268406474
10.076717811874582,554.671727850583,0.15240922789501082,0.02830558918973706,0.005919465053473092,0.9991846872682401
10.086724482988659,560.8276360025022,0.15272318189595704,-0.008425735027018679,-0.01566866595802398,0.9982324573700371
10.096731154102734,566.6374483040796,0.15303702824685972,-0.021884624918492485,0.014170558409961622,0.968215591108512
10.106737825216811,572.0681082030496,0.1533507545410658,0.013993831573362144,0.01813475359755115,0.983572846602312
10.116744496330886,577.0887164407984,0.1536643483766679,0.012771944661553902,-0.02270324836016801,0.9724682390804993
10.126751167444963,581.6707068623433,0.15397779735699518,0.015504647128038606,-0.009115072586572423,0.9882629175312266
10.136757838559038,585.7880089514608,0.15429108909110278,0.011764938736714168,-0.01121752014268847,0.976270714049477
10.146764509673115,589.4171961661842,0.15460421119426218,0.004753644273041896,0.01921228937975846,0.9798685050457836
10.15677118078719,592.537619230662,0.1549171512884503,0.01382199930763586,-0.010239358329075545,0.9643068650488132
10.166777851901267,595.1315236249951,0.1552298970028393,-0.0293464575818126,-0.00382324362637961,1.0185455442364715
10.176784523015343,597.1841506045374,0.15554243597428513,-0.010335123425509135,0.027680620656042817,0.9934330720222029
10.18679119412942,598.6838211739093,0.1558547558478167,0.01569685599991632,0.021672760142176863,0.9668982046279736
