timestamp,ppg,eda,acc_x,acc_y,acc_z
0.0,500.0,0.15,0.009057571006869785,-0.008575196110147057,0.9964681191584635
0.01000667111407605,507.5376961543239,0.15031436677336799,0.02276530389987003,0.03512842597011165,0.9957989804916226
0.0200133422281521,515.0325044778592,0.15062872111951,-0.006926137975565204,-0.020594104394319204,0.9692984002285331
0.030020013342228154,522.4417811621279,0.1509430506116913,0.02063645149947868,0.011108240194715149,0.9958291359693882
0.0400266844563042,529.7233690548388,0.15125734282415965,0.0044534149572181304,0.010774039569436074,0.9909552173548188
0.05003335557038025,536.8358375247991,0.15157158533263654,0.04130386480640184,0.007378446583528114,0.9637012832410861
0.06004002668445631,543.7387181930794,0.1518857657148083,0.03174454089120278,0.033619455024900484,0.9919562705387713
0.07004669779853236,550.3927351891757,0.15219987155081716,0.017959132342553003,0.021347963411557477,0.9574421263663458
0.0800533689126084,556.7600286220618,0.15251389042375224,-0.01127017278630152,-0.003987107985305183,0.9942002658985541
0.09006004002668445,562.8043699946292,0.15282780992014042,0.01535857143129783,0.017022380216365113,0.9466166045729394
0.1000667111407605,568.4913683358561,0.15314161763043696,-0.025534443525033326,-0.022909422098894416,0.9945002888349035
0.11007338225483655,573.788665877857,0.15345530114951625,0.009395137440291693,0.0006986436320333445,0.9956052831369593
0.12008005336891261,578.6661221644547,0.15376884807716193,0.0025298698517930646,-0.01801602265088536,0.9506260403550136
0.13008672448298866,583.0959855437363,0.15408224601855738,0.010822944925448153,0.03261190218658823,1.0105293529764547
0.1400933955970647,587.0530510688407,0.15439548258477548,-0.0036303616213676964,-0.0032894839245709694,0.9589070485411226
0.15010006671114076,590.5148039085532,0.15470854539326842,0.024399226770511095,-0.014981594735749742,1.0099411751870422
0.1601067378252168,593.4615474517369,0.15502142206835723,0.0033179595999349443,0.01778183721599956,0.9957900545753828
0.17011340893929286,595.8765153767107,0.15533410024172095,0.01179008315977009,0.006199418248123307,0.9616448932768215
0.1801200800533689,597.745967047927,0.1556465675528856,-0.011675391757781275,0.032252222171175,0.9459624932583562
0.19012675116744496,599.059265697161,0.15595881164971281,-0.03747024632566941,0.020353982546334085,0.962002699836817
0.200133422281521,599.808938944379,0.15627082018888808,-0.007161294869534912,-0.015349697958819415,1.0117188338313148
0.21014009339559706,599.9907213139348,0.15658258083640872,-0.006373713239344046,0.019892358073251244,0.961529786370834
0.2201467645096731,599.6035785041872,0.15689408126807142,-0.008749981577979567,-0.01588600140328365,0.9948886206694194
0.23015343562374915,598.6497132724476,0.15720530916995948,0.010902121345809552,0.009099066572498808,0.982188072362591
0.24016010673782523,597.1345529017763,0.15751625223892962,0.0228414129016408,-0.01633093074649447,0.9841792888017211
0.2501667778519013,595.066718320938,0.1578268981830982,0.009667597666351762,0.01872405314281759,0.9646167293516734
0.2601734489659773,592.4579750532153,0.15813723472232727,0.011895927512744014,0.043867996453622694,0.9873503632388361
0.2701801200800534,589.3231662731732,0.15844724958870993,0.014388656899119981,0.04154701285850984,0.9630207035066458
0.2801867911941294,585.6801283522656,0.1587569305270553,-0.0006027783059750224,0.005603589266331231,0.9879305575472455
0.2901934623082055,581.5495893738096,0.1590662652953731,-0.01807550656061234,0.009087551354053404,0.9849461080576634
0.3002001334222815,576.955051194758,0.15937524166535735,0.0008170940810713196,-0.044987541141340195,1.005808122848125
0.31020680453635757,571.9226557253103,0.15968384742287003,0.014562840576898278,-0.007492002085115877,0.9946542387295878
0.3202134756504336,566.4810361872007,0.15999207036842375,-0.004092349244562983,-0.005731239482513757,1.003708514386684
0.33022014676450967,560.6611541969748,0.160299898317664,-0.04046573350873312,-0.018746096615055816,1.0139662701219914
0.3402268178785857,554.4961236012107,0.16060731910185094,0.0040121602821790656,-0.023117815433851652,0.9868279011157678
0.35023348899266177,548.0210220660259,0.16091432056834032,0.007577980650780067,-0.024960095472653814,0.9819315469323007
0.3602401601067378,541.2726914928838,0.16122089058106392,-0.01633936008529939,-0.02024698351202738,0.9432183572424468
0.37024683122081387,534.2895283962898,0.16152701702100936,-0.008464346070395722,-0.013948298884255101,0.9841193094236017
0.3802535023348899,527.111265436081,0.16183268778669904,0.0005419743508832551,-0.0012844608563485815,1.0139468933865206
0.39026017344896596,519.7787453473439,0.16213789079466873,-0.033620255218674816,0.026909353085133824,0.9807671110664954
0.400266844563042,512.3336885542478,0.16244261397994497,0.027481420071275967,0.01032360215573968,0.9833221090780233
0.41027351567711806,504.8184557900218,0.1627468452965223,0.012353037669061253,-0.016650226784515908,0.9558959767220236
0.4202801867911941,497.27580707371254,0.16305057271783926,-0.005201439298814107,-0.03509525358796599,0.9866478173673054
0.43028685790527016,489.7486584150954,0.1633537842372538,0.013727167940659235,-0.02362152898713091,0.9927567578415492
0.4402935290193462,482.27983763203173,0.16365646786851806,-0.01558147224734995,0.01390781999142573,1.0157837776313658
0.45030020013342226,474.9118406696187,0.16395861164625208,-0.0048597975092587575,-0.032422424332686356,1.005906585800816
0.4603068712474983,467.68658980762245,0.16426020362641688,-0.006749075120857189,-0.0006400312062479991,0.9943713117892816
0.47031354236157435,460.6451951319407,0.16456123188678648,-0.0051912796303477575,-0.042081932121169605,0.9813650660910207
0.48032021347565046,453.8277206272687,0.1648616845274194,-0.01945157771106586,-0.002053977270612121,0.9404364804443417
0.4903268845897265,447.27295622185204,0.1651615496711289,0.0032535099160155467,0.01545161217648604,0.9588052165457028
0.5003335557038026,441.0181970813383,0.1654608154639526,0.013551526101234366,0.00417942457366304,1.0248146340805893
0.5103402268178786,435.0990314075003,0.16575947007562108,0.024105906902747914,-0.0036628921209937776,0.9420749673211677
0.5203468979319547,429.54913794920657,0.16605750170002542,0.008132134984560373,0.02919601318373693,0.9557146877544708
0.5303535690460307,424.40009437775876,0.16635489855568406,-0.022282663347539432,-0.0004570236538525149,0.9689186143757706
0.5403602401601068,419.68119761689775,0.16665164888620845,0.023630732341159193,0.021603585049911733,0.9961242378948217
0.5503669112741828,415.4192971497607,0.16694774096076787,0.03357435003789254,0.00389971843164169,0.9777382072354961
0.5603735823882589,411.63864225123615,0.16724316307455295,0.01318541444101058,-0.05107352567940009,0.9713252565666095
0.5703802535023349,408.36074401493113,0.16753790354923873,-0.011310782563980604,0.0036757036130238775,0.9995358923676212
0.580386924616411,405.604252959787,0.16783195073344592,-0.029912352355862704,-0.017258652836519204,0.9601993000685719
0.590393595730487,403.3848529127349,0.16812529300320178,-0.002877736751355582,0.013884780058415236,0.9775819227109529
0.600400266844563,401.7151717711749,0.16841791876239956,-0.0033021008826670936,-0.03647683185466193,0.9551760344714254
0.6104069379586391,400.60470965302153,0.16870981644325678,-0.005895582348756811,0.010177134603064441,0.991245486296001
0.6204136090727151,400.0597848431254,0.16900097450677265,0.021419299452668742,-0.01702263968846737,0.9725970388179679
0.6304202801867912,400.0834978436241,0.16929138144318423,0.031947857919619224,-0.04617618025660725,0.9963340941892568
0.6404269513008672,400.67571373276814,0.16958102577242126,-0.0001513724734395185,-0.0059023996517046755,0.9685432909352403
0.6504336224149433,401.8330629325958,0.16986989604456015,-0.0161225765984086,-0.01833722335649964,0.9782910344133902
0.6604402935290193,403.54896038108944,0.1701579808402766,0.01609326830593976,0.0034153506907519497,0.9458011416511152
0.6704469646430954,405.81364299972824,0.17044526877129684,-0.048512376293743914,-0.00624842811422588,0.9733314816154517
0.6804536357571714,408.61422524325417,0.17073174848084804,0.006733849500319221,-0.00018655765855026714,0.98289327519786
0.6904603068712475,411.93477241558617,0.17101740864410708,0.025533169460792197,-0.010301363951906829,0.9745428676802654
0.7004669779853235,415.7563913347313,0.17130223796864838,-0.02320639106458382,0.05267897911240066,0.9999707095607078
0.7104736490993996,420.05733783082815,0.17158622519489017,-0.0114925800582006,-0.022490322955761647,1.0044706824435274
0.7204803202134756,424.8131404656841,0.1718693590965397,0.002670080046913405,0.01180888309822483,0.9836005461084103
0.7304869913275517,429.9967397698683,0.1721516284810369,-0.009333267044179982,-0.010480324211001703,0.9540565041619429
0.7404936624416277,435.5786422051323,0.17243302218999698,0.014959303713531687,0.007418092420246023,0.9925895180310816
0.7505003335557038,441.527087976146,0.17271352909965143,0.034566880902194785,-0.020308033273172935,0.9654685942524259
0.7605070046697798,447.80823173673735,0.1729931381212878,0.013481990681030284,-0.03093298559032215,0.9603955568769845
0.7705136757838559,454.3863351624572,0.173271838201688,0.002016946342642112,0.008484497936493586,0.9861417505917497
0.7805203468979319,461.22397029377316,0.17354961832356533,0.020263326290675916,-0.01341974279636948,0.9324217605445966
0.790527018012008,468.2822324929151,0.1738264675059999,0.01941864639228318,-0.051765549921580806,0.9661168666821208
0.800533689126084,475.52096180269444,0.17410237480487276,0.020123372104284207,0.001037177928025598,0.9448939594098594
0.8105403602401601,482.89897144781463,0.17437732931329858,0.013449025218673772,-0.025612264774122245,1.0132405951549774
0.8205470313542361,490.3742821785504,0.17465132016205673,0.0026677869375142877,-0.024693781722896158,1.0055348071510972
0.8305537024683122,497.90436112343184,0.17492433652002104,0.011690060172959408,-0.0031930605191439845,0.9822215062038457
0.8405603735823882,505.4463637919141,0.17519636759458787,0.01422950248475034,-0.013619183039241072,0.986756738018892
0.8505670446964643,512.9573778500919,0.17546740263210278,0.02682539356277709,0.005488047977832589,0.9829321258426601
0.8605737158105403,520.3946672824263,0.17573743091828573,0.006362301273877418,0.02287290817673195,0.9707819293326411
0.8705803869246164,527.7159155502605,0.17600644177865446,0.018921121514648663,0.016757094485354267,0.9605223433492921
0.8805870580386924,534.8794663636031,0.17627442457894657,-0.004605695753116881,-0.011821908561231966,1.0012346481454741
0.8905937291527685,541.8445606962426,0.17654136872553994,-0.01632640713604098,0.004695029799805996,0.9492715427934852
0.9006004002668445,548.5715686956288,0.17680726366587132,-0.003247898666359996,0.014505633290277677,0.9708311611013557
0.9106070713809206,555.0222151680044,0.17707209888885375,0.009282077835727714,0.005519358543890559,0.9909541982604313
0.9206137424949966,561.1597973558264,0.17733586392529183,0.024179549121393373,-0.0037938863738665256,0.9626640543092583
0.9306204136090727,566.9493937683725,0.17759854834829575,-0.03567706282000326,0.007673866977410335,0.976658707665281
0.9406270847231487,572.3580628773306,0.17786014177369336,0.003576641008244563,-0.000317228592463437,0.9418093124949509
0.9506337558372248,577.3550305468391,0.1781206338604407,0.0042023175758809685,-0.011691012167026569,0.9567001750747735
0.9606404269513009,581.9118651315416,0.1783800143110309,0.011573220732365235,0.022195764968447298,0.9770089878613348
0.970647098065377,586.0026392463857,0.178638272871901,-0.011242263430323647,0.011950287223339153,0.9701720842581064
0.980653769179453,589.6040772877334,0.1788953993338376,-0.04084198776618196,0.020214607635507028,0.953830570907375
0.9906604402935291,592.6956878664189,0.17915138353238017,-0.01473342253485774,-0.024633933109402574,0.9987402524772843
1.0006671114076051,595.2598803992389,0.17940621534822299,-0.027945351630651226,0.008392978323320152,0.9989294179559737
1.0106737825216812,597.2820651954969,0.17965988470761518,-0.005716842561498999,-0.002517585937914923,0.9547320494065131
1.0206804536357572,598.7507364691292,0.1799123815827589,0.017487728466860232,-0.019594096691276482,1.0066122083093862
1.0306871247498333,599.6575378040931,0.18016369599220572,-0.033043380877139365,-0.02452360367052423,0.9563911031426234
1.0406937958639093,599.9973097005341,0.18041381800125128,-0.00969545306283093,0.0005738895968785766,0.9881535903314673
1.0507004669779854,599.768118931203,0.18066273772232794,0.01996981090549797,-0.02782300066497815,1.009230078467783
1.0607071380920614,598.9712695410935,0.18091044531539568,0.0005604546764377663,-0.007766493601612068,0.9908911121808611
1.0707138092061375,597.6112954277131,0.18115693098833113,-0.007178334960246003,0.008926730536148885,0.95734860760096
1.0807204803202135,595.6959345442052,0.1814021849973146,0.012645527183679573,0.029472211953934794,0.9650229106142822
1.0907271514342896,593.2360848721002,0.18164619764721524,0.010821488876343432,-0.007942135461753649,0.9987126209630863
1.1007338225483656,590.2457424142007,0.18188895929197432,-0.009808645418774187,0.014434102579283093,0.9687200925202795
1.1107404936624417,586.741921560409,0.1821304603349867,-0.0050450570147846895,-0.006393006394753341,0.9863859315574505
1.1207471647765177,582.744558279596,0.18237069122947994,-0.008562656505312518,-0.027180114818246726,0.9696507669052833
1.1307538358905938,578.2763966883297,0.18260964247889183,-0.009871771852143928,0.017707671292867017,1.023424289636976
1.1407605070046698,573.3628596418617,0.18284730463724583,-0.03286132326250474,-0.05835033705067887,1.0131414740244469
1.1507671781187458,568.0319040836806,0.18308366830952436,0.005993789051301049,-0.015998694053601645,0.9871004848924977
1.160773849232822,562.3138619766623,0.1833187241520403,0.007123304356060137,0.010332824725565615,1.0017387546384116
1.170780520346898,556.2412677208814,0.18355246287280638,0.024168196585219015,0.011046849774047875,0.9677106114673871
1.180787191460974,549.8486730400421,0.18378487523190234,-0.005913395811500288,-0.005865992979428247,0.9740798056070586
1.19079386257505,543.1724503897804,0.18401595204184032,-0.021366664629576558,-0.013022675779958906,0.9744681362551725
1.200800533689126,536.2505860064035,0.18424568416792808,-0.01346327189919271,0.006903734769746186,0.9659923837750977
1.2108072048032021,529.122463773573,0.18447406252862997,-0.002150206465397071,0.006724002645886681,0.9912971354360572
1.2208138759172782,521.8286411366806,0.18470107809592606,0.022314659115542694,0.006455632056660569,1.011972517873705
1.2308205470313542,514.4106183399191,0.184926721895669,0.011806163637737692,-0.01562626164665578,1.0004176105567755
1.2408272181454303,506.9106022990325,0.18515098500793867,-0.0014476729652676459,-0.00986953782113135,0.9896123214945926
1.2508338892595063,499.3712664532641,0.18537385856739494,0.0016379044362415996,-0.016294869459684468,1.009474251404282
1.2608405603735824,491.83550796288523,0.18559533376362805,-0.002341699527927573,0.016198500162940072,0.9948057846294918
1.2708472314876584,484.34620363380355,0.1858154018415069,-0.05458754384966045,-0.00022536955397473826,1.0054766404902247
1.2808539026017345,476.94596595798134,0.18603405410152515,0.013622486677139728,0.0015342631511333182,0.9996406486737396
1.2908605737158105,469.6769006577422,0.18625128190014512,0.0007228823379969446,-0.0016606191134182072,0.9958557553799685
1.3008672448298866,462.5803671134865,0.1864670766501395,-0.01428862926078218,-0.012781473712289135,1.021793137958111
1.3108739159439626,455.69674303792624,0.18668142982093083,0.050658844296935575,-0.009523146073705495,0.9899940913673879
1.3208805870580387,449.06519473579453,0.18689433293892857,0.029905606430012544,0.018225047764390944,0.9782198260775671
1.3308872581721147,442.723454256198,0.18710577758786429,-0.006052536582640973,-0.020377565366677345,0.9762789939974709
1.3408939292861908,436.7076047055695,0.1873157554091242,-0.04286940415079738,-0.0023499499971074175,0.9486521514165767
1.3509006004002668,431.05187494274014,0.18752425810207973,0.0005669665542047902,-0.017458294606373003,0.9787318538525787
1.3609072715143429,425.78844482427144,0.1877312774244155,0.006072412622061224,0.02069536362143647,1.0005930351605394
1.370913942628419,420.9472621081612,0.18793680519245526,-0.03957983946162814,0.03920264006782938,0.9874822232938468
1.380920613742495,416.5558720576958,0.1881408332814853,0.032622065749042056,-0.02126693110680698,1.0083036798358234
1.390927284856571,412.6392607149703,0.18834335362607577,0.011506596917325047,-0.029111660504485104,0.9759806861992166
1.400933955970647,409.2197127358121,0.18854435822039936,-0.0194605908326867,-0.01486596362635192,0.9784153461994229
1.4109406270847231,406.3166845949982,0.18874383911854792,-0.01083824350139577,-0.007446468094305595,0.9693414697055523
1.4209472981987992,403.9466938831993,0.18894178843484644,-0.021952446616257077,-0.020126614538823313,0.9791125943830365
1.4309539693128752,402.1232253255274,0.18913819834416484,0.03182919545628615,-0.023587864982857934,0.9700087141675824
1.4409606404269513,400.85665405642,0.18933306108222736,-0.01413326024832774,-0.018868624401854953,1.0135275516431659
1.4509673115410273,400.1541865874102,0.1895263689459194,-0.027540967599845038,-0.030966123263637554,0.9405733779535136
1.4609739826551034,400.01981980366423,0.18971811429359206,0.018202487325049973,0.002813917436868424,0.9790143113281238
1.4709806537691794,400.45431822258456,0.1899082895453642,-0.04777177606844161,0.013617989633102592,1.011449230458837
1.4809873248832555,401.4552096438746,0.19009688718342216,-0.0003842424013483461,-0.011322178212456823,0.9853891470795328
1.4909939959973315,403.01679921581365,0.19028389975231685,0.01590704673016977,0.0069385617864710794,0.9931334366607942
1.5010006671114076,405.1302018377091,0.19046931985925855,0.049405954422985794,-0.024781389780279765,0.9724311443705376
1.5110073382254836,407.7833927141618,0.1906531401744091,0.008623071231571635,0.004070712418191027,0.9962151418195241
1.5210140093395597,410.96127577350353,0.19083535343117167,0.015338482305220127,-0.0006825034990372528,0.9854983614557595
1.5310206804536357,414.6457695611195,0.191015952426478,-0.012154860500993405,0.03676344884094775,0.9970453555269063
1.5410273515677118,418.81591011894227,0.19119493002107324,0.0003035162864162134,-0.017724102369019504,0.9773599888337782
1.5510340226817878,423.44797026575526,0.19137227913979798,0.0010195476568927854,-0.0159350888370679,0.9681699125468007
1.5610406937958639,428.51559459962795,0.19154799277186818,-0.013315427083194076,0.00607020409277242,0.9764782187408434
1.57104736490994,433.98994945434697,0.1917220639711521,0.021685442902939184,-0.02749458295731487,0.9663380945756952
1.581054036024016,439.83988695662583,0.19189448585644497,0.005635982049154972,0.03373491778783922,0.9971611812017787
1.591060707138092,446.03212225064357,0.1920652516117411,0.004259562755801393,-0.021013202524851476,0.9967308551894676
1.601067378252168,452.53142288154163,0.1922343544865031,-0.0021543436061153506,-0.032902432150701495,0.9892561622316783
1.611074049366244,459.3008092603326,0.19240178779592904,0.024386456527258207,0.015227627400994957,1.0085614055930172
1.6210807204803201,466.30176506961453,0.19256754492121642,0.03617105401507175,0.01772586037806321,1.0033146939055737
1.6310873915943962,473.49445641293477,0.19273161930982396,0.002204766045688099,-0.03425291151410441,0.9971639031983108
1.6410940627084722,480.8379584608848,0.19289400447573068,-0.021539723695405005,0.010101501511517747,0.9526353062704634
1.6511007338225483,488.2904883043665,0.1930546939996921,-0.026703257019850674,0.014199775992347171,0.9802630321475942
1.6611074049366243,495.8096426901402,0.1932136815294942,-0.019863107113060278,-0.007158552208624633,0.987522762618627
1.6711140760507004,503.3526392859962,0.19337096078020446,-0.013627793122868982,-0.019471894069282382,0.9741796325556071
1.6811207471647764,510.8765601028014,0.19352652553442032,0.016274239308083988,0.012009039618622238,0.9890704349564334
1.6911274182788525,518.3385956884033,0.19368036964251487,-0.01435278073242739,0.054592718749073274,1.0231571921204952
1.7011340893929285,525.6962887039838,0.19383248702288006,-0.008163988499495744,-0.021187266006474154,0.9772284893537704
1.7111407605070046,532.9077754969642,0.1939828716621671,0.019711174734055006,0.006767533728222078,0.9612491032618996
1.7211474316210806,539.9320242959682,0.1941315176155241,0.015650845780078727,0.04775388468489187,0.9931461103628851
1.7311541027351567,546.7290686725618,0.1942784190068312,-0.021260658367430806,-0.0027388676608283424,0.9993688416165141
1.7411607738492327,553.260234941428,0.19442357002893274,-0.01683431903816504,0.008420546523888395,0.9766248717257111
1.7511674449633088,559.4883622051184,0.19456696494386683,0.01343903143038023,0.009057757572471889,0.9639553222063135
1.7611741160773848,565.378013791373,0.19470859808309224,0.049831228034329475,0.02300750461672672,1.0057282656479793
1.7711807871914609,570.8956788799807,0.19484846384771248,-0.0010803885630073777,0.00965275107363136,0.9802361727204223
1.781187458305537,576.009963171964,0.19498655670869713,-0.034919650256821685,0.0005983167663407174,0.9988767360856537
1.791194129419613,580.6917675162263,0.1951228712071003,0.033672215753580946,-0.010164073158640746,0.9891297495040061
1.801200800533689,584.9144534773101,0.1952574019542766,-0.014070838602899807,-0.02884853843178385,0.9580348991221057
1.811207471647765,588.6539949022288,0.19539014363209398,0.019267176329385356,0.014390071401951086,0.9432263718031579
1.8212141427618411,591.8891146239839,0.19552109099314413,0.016649541908695713,-0.01962529802706089,1.0069976020287388
1.8312208138759172,594.601405523959,0.1956502388609498,0.017990178004222753,0.0009537730996851168,1.0073538632714656
1.8412274849899932,596.7754352643701,0.1957775821301695,-0.03532374079421009,0.02267954483329696,0.9932461561049015
1.8512341561040693,598.3988340948681,0.1959031157667992,0.039599697608201465,4.7657057377431224e-05,0.9720939179980724
1.8612408272181453,599.4623652336937,0.19602683480837155,0.004265799085723435,0.02646883630055287,0.981211191261472
1.8712474983322214,599.9599774229313,0.19614873436415178,0.008818825918020188,-0.01569912932056162,1.0087910183607023
1.8812541694462974,599.8888393588331,0.1962688096153313,0.0014101938255662544,-0.010873688392928882,1.0095843695030204
1.8912608405603735,599.2493558013144,0.19638705581521798,0.0031569923071324397,0.0028652699078396053,0.9712678157529432
1.9012675116744495,598.0451652709584,0.19650346828942386,-0.006805189789196736,-0.04367310768713239,0.9704134821599264
1.9112741827885256,596.2831193466352,0.19661804243605005,2.690584257705949e-05,-0.031869046090985204,0.9650294363210834
1.9212808539026018,593.9732436815284,0.19673077372586845,0.0024635285756608527,0.012805777747553962,0.9833166071489111
1.9312875250166779,591.1286809593755,0.19684165770250092,-0.014953178081563668,0.007952950665492838,0.9817644537270664
1.941294196130754,587.7656161154937,0.19695068998259546,0.0059401108206103125,0.008765328817105,0.9689677382978691
1.95130086724483,583.9031842480613,0.19705786625599936,0.0073124887702339025,-0.00912508050033409,0.989063222152723
1.961307538358906,579.5633617436258,0.19716318228592977,0.04203386272827655,0.02080645006456136,0.9701145815069331
1.971314209472982,574.7708412363038,0.197266633909141,0.027698454265820644,0.014279542933802737,0.9696491576514904
1.9813208805870581,569.5528911121329,0.19736821703608923,-0.009926270405125026,-0.0021213252973267672,1.001145369971735
1.9913275517011342,563.9392003579609,0.1974679276510941,0.0017777758046001297,-0.004585987567055646,0.9830851210872752
2.0013342228152102,557.9617096376502,0.1975657618124975,0.013908930262950108,0.0012364841692368979,0.9888940231111633
2.0113408939292863,551.6544295567368,0.19766171565281931,-0.001616181559731173,-0.0030463789640784817,0.9745587250858141
2.0213475650433623,545.0532471495751,0.19775578537891045,0.0019097936966266033,-0.021251323641833467,0.9490773601145603
2.0313542361574384,538.1957216900188,0.19784796727210258,0.007035458680501296,0.0032397387585570447,0.9935937712258505
2.0413609072715144,531.120870987424,0.19793825768835538,0.01189820409980827,-0.00677999716019217,0.9598752493386636
2.0513675783855905,523.8689493839103,0.19802665305840034,0.05238526439701203,0.028418222002800097,0.9918776178313903
2.0613742494996665,516.4812187160196,0.19811314988788206,0.039424335569665354,0.012807579823313802,0.9901943120351849
2.0713809206137426,508.99971354395535,0.1981977447574963,-0.02115420659739022,-0.014225161989902231,0.9720824792774521
2.0813875917278186,501.4670019841946,0.1982804343231251,-0.005327991131509249,-0.012210491508595479,0.9425807745169946
2.0913942628418947,493.9259435062804,0.1983612153159691,0.017246802295111028,0.03260487901887268,0.9866862279707107
2.1014009339559707,486.4194450718822,0.1984400845426766,0.009247287846863508,-0.038308201106892675,0.990865952405248
2.1114076050700468,478.99021700363375,0.19851703888546998,-0.021571842487250917,0.012609431056839782,0.9711865417623344
2.121414276184123,471.68052997280637,0.1985920753022688,-0.011548774862243106,0.029898860180409263,1.0013141280088216
2.131420947298199,464.53197448849903,0.1986651908268101,-0.0032478136142490496,0.026326287480194104,0.9727225768454538
2.141427618412275,457.58522425680485,0.19873638256876577,-0.000402937109618142,-0.041617487712614885,0.978596223951935
2.151434289526351,450.8798047563794,0.19880564771385653,0.04454406622516593,0.008466039077387083,0.960942916716335
2.161440960640427,444.4538683471766,0.19887298352396351,0.005969886113506782,-0.02071315239371442,0.9793295549017308
2.171447631754503,438.34397719192276,0.1989383873372363,0.013620832996232998,-0.013491430116504985,0.9802490122740457
2.181454302868579,432.58489522546483,0.19900185656819813,0.007072088653010458,-0.014360600413632687,0.9638741897742199
2.191460973982655,427.2093903556374,0.1990633887078483,0.010401143513818229,-0.011924581686463551,0.9582337174226575
2.201467645096731,422.2480480210868,0.1991229813237611,0.05421780295569759,0.001240092812519109,0.9715214112041015
2.2114743162108073,417.72909716686087,0.1991806320601822,-0.018376249783384507,0.03311669104713638,0.9931134801483572
2.2214809873248833,413.6782496279301,0.19923633863812157,-0.002613119955860836,-0.02656951380501331,0.9574885928011097
2.2314876584389594,410.11855383451035,0.19929009885544371,-0.02186071153791943,-0.01091933758315034,1.0021229726796719
2.2414943295530354,407.07026367157107,0.19934191058695466,0.013362582683264292,-0.014856751533369019,0.9948047653894813
2.2515010006671115,404.5507232386921,0.19939177178448603,0.002759125762221466,-0.027421342143773994,0.9851180912556191
2.2615076717811875,402.57426816595705,0.19943968047697586,0.014673202324627373,0.0044072582797970205,0.9804674367875026
2.2715143428952635,401.1521440473756,0.19948563477054676,0.010230478286765035,-0.002870708801862017,0.9829122731990036
2.2815210140093396,400.292442455931,0.1995296328485805,0.007044051722099365,-0.010899315345370758,1.0039477143725626
2.2915276851234156,400.0000549043119,0.19957167297179002,-0.009085985610149908,-0.0003522974891487012,0.9871641233223357
2.3015343562374917,400.2766450132828,0.1996117534782882,-0.008733349904176832,0.017943545177421343,1.0016658897760455
2.3115410273515677,401.12063904604827,0.19964987278365337,0.011741027120904291,0.0026554226667487636,0.994392649964813
2.321547698465644,402.52723486246845,0.19968602938099214,-0.005172048959457327,-0.001195000796788551,1.0086035232673636
2.33155436957972,404.4884292421791,0.19972022184099883,-0.021899884807811635,-0.0014404327436198603,0.9797495521695144
2.341561040693796,406.99306342115227,0.1997524488120121,0.021657735755333498,-0.006356575318213374,0.9820600867533784
2.351567711807872,410.02688658260575,0.1997827090200682,0.010002519759120395,0.023491692119916793,1.0015605165187338
2.361574382921948,413.57263694101164,0.19981100126895157,0.012560852506502232,-0.016117311070776345,0.9738266829522103
2.371581054036024,417.61013995785345,0.19983732444024194,0.008206945660775577,0.0051305420015678276,0.9950715122705293
2.3815877251501,422.1164231303071,0.1998616774933586,0.007186338251763243,-0.012971855909645476,0.9266462204755935
2.391594396264176,427.06584669972096,0.1998840594656015,0.022018495073746723,-0.015111853530973567,0.9787633625611348
2.401601067378252,432.43024953619533,0.19990446947218946,-0.0017049405117737049,-0.016322403601427466,0.9762347611943614
2.4116077384923282,438.17910936920845,0.1999229067062949,-0.018351839381095233,0.023487441909077533,0.9751244455641308
2.4216144096064043,444.2797164526132,0.19993937043907595,0.012260649330123089,0.02344647584303862,1.0110528616362238
2.4316210807204803,450.6973596758865,0.19995386001970517,-0.0019028295938961215,0.025877654735951165,0.9966694869152973
2.4416277518345564,457.39552406270326,0.19996637487539526,0.023054033992836977,0.04938646532840898,1.0074590725266879
2.4516344229486324,464.33609853310827,0.1999769145114217,-0.017114972685699704,0.022355465928436558,0.9868347770922907
2.4616410940627085,471.47959274716607,0.1999854785111424,0.018879703794759256,-0.02568522736607905,0.9634889112022421
2.4716477651767845,478.785361796298,0.1999920665360141,0.021610937430835416,0.0032085547605125416,0.9735116649157035
2.4816544362908606,486.21183746385714,0.19999667832560566,-0.01902588328889578,0.02617611362383757,0.947306637966814
2.4916611074049366,493.71676473912606,0.1999993136976086,0.003363592506889201,-0.021963327915981427,0.9796648040108418
2.5016677785190127,501.2574422390198,0.19999997254784405,-0.016375723893496258,0.018886571394106925,0.9760190950750139
2.5116744496330887,508.7909651695508,0.19999865485026702,-0.03124633473314886,-0.008144914854519146,0.9682271728490205
2.5216811207471648,516.2744694446544,0.1999953606569674,0.009782410023180897,0.00864176169474395,0.9950022680172022
2.531687791861241,523.6653755733981,0.19999009009816787,-0.0051397495391605754,-0.023208730200302116,0.977886631334928
2.541694462975317,530.9216309279053,0.19998284338221878,0.010196280590546928,-0.0239876731986279,0.9878424058378859
2.551701134089393,538.0019490135452,0.19997362079558986,0.0033201998356330925,-0.028142964596788528,0.9899665857003592
2.561707805203469,544.8660443799938,0.19996242270285902,-0.03936370485991462,0.003539246150235152,0.9631692687600169
2.571714476317545,551.4748618365714,0.1999492495466978,-0.025661619731998587,-0.01516657092167817,0.983986651085081
2.581721147431621,557.7907986676752,0.19993410184785393,-0.012102545474921225,0.006135287359885511,0.9835427950595562
2.591727818545697,563.7779185839488,0.1999169802051308,-0.0016019482331898114,0.02355970271620854,0.9880573814563801
2.601734489659773,569.402156191852,0.19989788529536365,-0.013361034609415486,-0.006123378747842327,0.9820679527204152
2.611741160773849,574.6315108182483,0.19987681787339295,-0.007914279313465203,-0.020571762972625016,0.9784585829922973
2.6217478318879253,579.4362285871841,0.19985377877203453,0.005593846597090322,0.0036090673287210297,0.9600329297794151
2.6317545030020013,583.78897171289,0.19982876890204654,-0.01271084737169259,0.03782931680040842,0.9637097395228031
2.6417611741160774,587.66497404576,0.1998017892520936,0.0034792929150555935,-0.010366942199032631,0.9567690162188429
2.6517678452301534,591.0421819862881,0.19977284088870773,-0.03623833230641189,0.04012517083923069,0.9761418866628637
2.6617745163442295,593.9013799651909,0.19974192495624596,-0.0010885594402620777,0.005614105809616619,1.012461231254335
2.6717811874583055,596.2262997757641,0.1997090426768454,0.014629225875100706,-0.0012589498539564376,0.9746989307396223
2.6817878585723816,598.0037131363963,0.19967419535037464,0.0028559280427421525,0.021178556423242335,0.9918827122870115
2.6917945296864576,599.2235069565763,0.19963738435438266,0.0021555641592590643,0.017020769671502442,0.9531305747493232
2.7018012008005337,599.8787408781519,0.19959861114404406,0.020103304815250866,0.018158477999661065,0.9814736556239863
2.7118078719146097,599.9656867644376,0.19955787725210183,0.017561560136479935,-0.007582925719069021,0.9972706444778463
2.7218145430286858,599.4838499124919,0.1995151842888065,0.004162175226647367,0.0007831090181774485,0.9900221368002117
2.731821214142762,598.4359718678684,0.19947053394185266,-0.00820296305357604,-0.027220769790444348,0.9895900832457017
2.741827885256838,596.8280148258243,0.1994239279763122,-0.016903281347589928,0.031872157771393746,0.9707462660801951
2.751834556370914,594.6691277077443,0.19937536823456456,0.016027005995714768,0.00862774910854867,0.9721124593416612
2.76184122748499,591.9715941057916,0.19932485663622376,-0.01480758392903111,-0.001558517415588348,1.0037094148631185
2.771847898599066,588.7507623919752,0.19927239517806272,0.002786907716365996,-0.003980291099046542,0.9992393791313761
2.781854569713142,585.0249583892937,0.19921798593393414,0.022415025166814796,0.004026674001970989,1.042875503067738
2.791861240827218,580.8153811018387,0.1991616310546887,0.007566252525057146,0.002022081438743457,0.9862159127181243
2.801867911941294,576.1459820971315,0.1991033327680899,0.034555365659249826,-0.003993170284486761,0.979799244356694
2.81187458305537,571.0433292269798,0.19904309337872594,-0.018309005796669154,-0.004731997808698679,0.9823844717276656
2.8218812541694462,565.5364554622528,0.1989809152679189,-0.002251354121230022,0.012420424364339327,0.9857346970833442
2.8318879252835223,559.6566937016711,0.1989168008936302,0.013860824631208914,-0.03223721117404233,0.9822536476687557
2.8418945963975983,553.4374984945166,0.19885075279036385,0.00396715372566386,0.04509848716368484,0.9768270664657928
2.8519012675116744,546.914255691615,0.1987827735690659,0.03763959484326134,-0.01289527951434267,0.980383347584957
2.8619079386257504,540.1240811076391,0.19871286591702148,-0.001765479424808148,0.007190785764877851,0.9684754014443798
2.8719146097398265,533.105609340299,0.19864103259774843,0.01641474740697896,0.012173242596871725,0.9874577014241993
2.8819212808539025,525.8987739479902,0.19856727645088812,0.02552039350322405,-0.014141242504570448,0.9583915873055555
2.8919279519679786,518.5445802366447,0.19849160039209315,0.0014447165554332473,0.004628013857132001,1.036311563471402
2.9019346230820546,511.08487194857037,0.19841400741291215,-0.017688847095745756,-0.0014874420969072366,0.9587709151240741
2.9119412941961307,503.5620931807753,0.19833450058067148,0.03894471448684443,0.007728290248309573,0.994085416504462
2.9219479653102067,496.0190468874048,0.19825308303835393,-0.005975985212398242,0.029651249916237958,0.9901488109385693
2.931954636424283,488.4986513403594,0.1981697580044746,0.029922871475077356,0.0037671990940149214,0.968747193366467
2.941961307538359,481.0436959337834,0.19808452877295354,0.00916784394930179,-0.0016478937461440097,0.986981429706662
2.951967978652435,473.69659772183593,0.19799739871298566,0.0019599381454355955,-0.02183253106620315,1.0099618179423038
2.961974649766511,466.4991600749968,0.19790837126890745,0.04909044606193939,-0.0312526119606033,0.9438358499381141
2.971981320880587,459.492334828095,0.1978174499600608,-0.031078554259818075,0.020086786052855708,1.0067111457624405
2.981987991994663,452.7159892733913,0.19772463838065396,-0.02268898101784604,0.015268224036972065,0.9876786184354476
2.991994663108739,446.2086793244651,0.19762994019961944,0.010383691094212699,0.0218174279652921,0.979259652061821
3.002001334222815,440.00743014155955,0.19753335916046896,-0.02221211917358804,-0.013531502752003002,1.0004433582243677
3.012008005336891,434.14752546657553,0.19743489908114545,-0.02378529984727866,0.006265106035254714,0.9967610965448411
3.022014676450967,428.66230686635095,0.19733456385387213,0.04002024993367367,0.013583037483021601,1.0338342734787018
3.0320213475650433,423.5829840264914,0.19723235744499867,-0.04317679834776435,-0.01467697737872767,0.9618822946728083
3.0420280186791193,418.93845717513227,0.19712828389484433,0.034173215557403894,0.012420278967083418,0.9553328485109095
3.0520346897931954,414.7551526470075,0.19702234731753834,-0.044804201397911574,0.012561751429800013,0.9805073709398485
3.0620413609072714,411.0568725234243,0.19691455190085724,0.0034331346916899055,0.01814836324084351,0.9927571693394237
3.0720480320213475,407.8646592036655,0.1968049019060592,-0.05289119491727684,-0.0023051741196059012,0.9875308364339813
3.0820547031354235,405.19667567837104,0.19669340166771582,-0.006942011472744767,-0.04221974602202207,0.982019199224702
3.0920613742494996,403.0681021861227,0.19658005559354053,0.03287202161842521,0.01098980707785811,0.9920544384040881
3.1020680453635756,401.4910498412302,0.1964648681642145,-0.023333097475592483,-0.004257624282988272,1.0011502375310064
3.1120747164776517,400.4744917241583,0.19634784393320942,0.027664742422419064,0.009183167634974995,0.955785455437147
3.1220813875917277,400.02421182667575,0.1962289875266076,0.025297779698938667,-0.020134005652031665,0.9949972969470795
3.1320880587058038,400.142772142216,0.1961083036429191,0.009567490679214724,-0.0005074970169209525,1.0090028030957476
3.14209472981988,400.829498088699,0.1959857970528958,-0.00936378738028722,-0.00043158516794641606,0.9550790359817504
3.152101400933956,402.0804823467543,0.195861472599343,-0.011820010166617741,-0.0038590426305434773,0.9831588295846996
3.162108072048032,403.8886070915083,0.19573533519692796,-0.0030536570486679876,-0.004240052854064119,0.9629230776255042
3.172114743162108,406.24358449143915,0.19560738983198553,0.003286842039556963,-0.009317069811618396,0.9391422231763303
3.182121414276184,409.1320152438726,0.19547764156232114,0.00433965746390332,-0.04100791747607816,0.9765283573973567
3.19212808539026,412.53746481406216,0.19534609551701076,-0.007435522684737136,-0.006553814291863619,0.9694631325060215
3.202134756504336,416.4405569440728,0.19521275689619821,0.011748543325511465,0.005591312568409569,0.987422916987056
3.212141427618412,420.8190838994193,0.1950776309708896,-0.031464536572331246,0.012251893482691217,0.9798980418378166
3.222148098732488,425.6481328261846,0.19494072308274485,-0.005193821797535081,-0.0007664135921955444,1.0072362630098879
3.2321547698465642,430.9002274996709,0.1948020386438667,-0.004691129791820698,0.0053914439414578285,0.972651652104508
3.2421614409606403,436.5454846580654,0.19466158313658663,-0.004287364340124218,0.009041858532258999,0.9428075061467259
3.2521681120747163,442.55178403161915,0.19451936211324822,0.005729266269528827,0.035861682761145666,0.9810304551252732
3.2621747831887924,448.88495109990504,0.1943753811959876,-0.024476821471802808,0.005870501185678764,1.0102501913936206
3.2721814543028684,455.5089515373121,0.19422964607651122,-0.021998777201868828,-0.002055675728942761,1.018392511005208
3.2821881254169445,462.386096240421,0.1940821625158709,0.006879296847645289,0.04192841029001256,0.9667350935514859
3.2921947965310205,469.47725577070133,0.19393293634423603,0.009805713915540894,0.01626525875770599,0.9670508437709339
3.3022014676450966,476.74208299239655,0.1937819734606631,-0.003523704815304663,0.05191497546764773,0.9652751113400211
3.3122081387591726,484.13924263883973,0.1936292798328625,-0.022682776481524655,0.012244097489108112,0.9957092375146707
3.3222148098732487,491.6266465010163,0.19347486149696272,-0.014364319800314272,-0.027002566184948913,1.0032048170794474
3.3322214809873247,499.16169290020173,0.19331872455727153,0.020292379498994633,0.007759454782662543,0.9720447655824505
3.342228152101401,506.70150908213134,0.19316087518603492,-0.003965015004725758,0.04208537820555115,0.9955719730034104
3.352234823215477,514.2031951535262,0.19300131962319284,0.00694021915791349,-0.0004993450745321842,0.9847960718898967
3.362241494329553,521.6240681730376,0.19284006417613278,-0.000860781796905259,-0.005598435432915566,0.9562225637464276
3.372248165443629,528.9219050077814,0.19267711521944023,-0.006186538956564878,0.011168631457362695,0.966232093948912
3.382254836557705,536.0551825736635,0.1925124791946468,0.006521013325433145,-0.029076490773286202,0.9847200926830942
3.392261507671781,542.9833140925828,0.19234616260997559,-0.00495167671736544,0.021081256318395886,0.9535274730931741
3.402268178785857,549.666880022257,0.1921781720400838,-0.009837335942899202,0.01461759376843165,0.9594223490525731
3.412274849899933,556.0678523447365,0.192008514125803,-0.013205739115700181,-0.02804349103542685,1.0154471472843494
3.422281521014009,562.1498109374492,0.1918371955738764,-0.030798522798200105,0.006492524904689918,0.9819784671636486
3.4322881921280852,567.8781507956772,0.19166422315669393,0.005145184335648394,0.047223473514658706,0.9765281663182166
3.4422948632421613,573.2202789274095,0.1914896037120244,0.005952978715626477,0.02251036643384902,0.9974612907112625
3.4523015343562373,578.1457998002876,0.19131334414274523,0.012874725148919748,-0.03500271551974612,0.9630424815608808
3.4623082054703134,582.6266882854904,0.19113545141656957,-0.010196964414778839,-6.295362949375326e-05,0.9681883459096945
3.4723148765843894,586.637449114543,0.19095593256577081,0.020448428546820573,-0.013802233663899226,0.9685951066373033
3.4823215476984655,590.155261941779,0.19077479468690475,0.01851558434603999,0.01940160460857571,0.9680736610986251
3.4923282188125415,593.160111187081,0.19059204494052884,0.004474340954760632,0.04302101228703543,0.960662605439874
3.5023348899266176,595.6348999201215,0.1904076905509193,-0.019577359056315802,-0.003412453828885638,1.000172659308324
3.5123415610406936,597.5655471381317,0.19022173880578544,-0.024224714443442465,-0.009909207422667952,0.9831549768894238
3.5223482321547697,598.9410678837053,0.19003419705598157,0.008145340506928387,0.013559074258506743,0.9885934699000207
3.5323549032688457,599.7536357467859,0.1898450727152165,0.024909511885593823,0.006659511925584945,0.9899305881740782
3.5423615743829218,599.9986273952172,0.18965437325976037,0.04284026002219008,-0.0025533585976449938,0.9904458955063175
3.552368245496998,599.6746488804839,0.18946210622814913,-0.028562704541740046,-0.0489989271378588,1.0096972366610546
3.562374916611074,598.7835435689722,0.18926827922088657,-0.019395788245015155,-0.0008604861777319585,0.9916478454553366
3.57238158772515,597.3303816536203,0.18907289990014386,-0.017021479317413563,0.01862082464156884,0.989646779215092
3.582388258839226,595.3234313056387,0.1888759759894566,0.009344043835395516,-0.03370595386278581,0.9601493951636544
3.592394929953302,592.774111630436,0.1886775152734196,-0.0028566071075175354,0.0033282234541020966,0.9750621591619282
3.602401601067378,589.6969276954252,0.18847752559737901,0.007691213491087611,-0.003129519633439199,0.9918694031332103
3.612408272181454,586.1093879993844,0.1882760148671223,0.0054538461696435805,0.027034927289758936,0.9939483396868443
3.62241494329553,582.0319048529561,0.18807299104856576,0.0020103485821325153,-0.015363105838992573,0.9724469397859996
3.632421614409606,577.4876782370959,0.1878684621674394,0.0015112496765871091,0.03946393243770534,0.9658422100361324
3.6424282855236823,572.5025638002903,0.18766243630897,-0.014566921806298802,0.0034251244881735405,0.9603703026775072
3.6524349566377583,567.1049257456131,0.18745492161756117,-0.008728579594490728,-0.0036965221111077153,0.9608186783284735
3.6624416277518343,561.3254754446561,0.18724592629647166,0.0022195132028798377,-0.04372222308599645,0.9767181311297416
3.6724482988659104,555.1970966965918,0.18703545860749082,0.009980180103453641,0.012009034538139323,0.9399521196439058
3.6824549699799864,548.7546586265973,0.18682352687061227,-0.0047791267128240045,-0.029581660432246654,0.9631545730599532
3.6924616410940625,542.0348172882143,0.1866101394637048,-0.010130366223605183,0.001216548139388862,0.9850277715033968
3.7024683122081385,535.0758070984778,0.18639530482218133,0.0031757798496391165,0.012108913175126329,0.9780370114530021
3.7124749833222146,527.9172232925046,0.18617903143866532,-0.007057189001662214,-0.018477297636300124,0.9755537023519945
3.7224816544362906,520.5997966353283,0.18596132786265512,-0.013221847082823684,-0.009940533561014266,0.9850108012074565
3.7324883255503667,513.1651616728176,0.185742202700186,0.029294234618288992,-0.01740514479432574,0.9705775193058022
3.7424949966644427,505.6556198402813,0.1855216646134899,-0.03927328860288117,0.005712045801129599,1.010460479037352
3.752501667778519,498.11389877661776,0.18529972232065312,-0.02800217383775777,0.00316846165147726,1.027324617290183
3.762508338892595,490.58290921346344,0.18507638459527148,0.01823919487801742,-0.04279674692805936,0.9988877980643344
3.772515010006671,483.1055008225804,0.18485166026610372,0.02111930749051395,0.01411597181033569,0.971215574306459
3.782521681120747,475.7242184106627,0.18462555821672236,0.0063496984359324975,0.009471044982817495,0.9822177461693525
3.792528352234823,468.48105984875826,0.18439808738516247,0.012046282462686393,-0.02249553591967524,0.9437226161469626
3.802535023348899,461.41723711363187,0.18416925676356852,-0.030317263239592093,0.014473916678975239,0.9726993850303373
3.812541694462975,454.5729418006973,0.18393907539783877,0.014829054387031504,0.004001835711747452,0.9537698711629813
3.822548365577051,447.9871164426912,0.18370755238726766,-0.021953562380123484,0.012402208664377778,0.9646528509688393
3.832555036691127,441.69723293524004,0.18347469688418627,0.013143688855190655,0.02311108258526525,0.9917658500257059
3.8425617078052037,435.7390793300266,0.18324051809360037,0.004579432019703912,-0.027276362399005574,0.9298318253178465
3.8525683789192797,430.146556208662,0.18300502527282653,-0.00013250197305959173,-0.0027490388817899437,0.9661638637497216
3.8625750500333558,424.95148379584043,0.18276822773112625,-0.015585329453458148,0.00485703047532419,1.0343208783891216
3.872581721147432,420.1834209092715,0.18253013482933797,0.005012249507364034,-0.041070487538778705,0.9569866002120277
3.882588392261508,415.86949677651785,0.18229075597950692,0.011609979951304014,-0.0101100123101045,0.9893882827984519
3.892595063375584,412.0342566756658,0.18205010064451313,0.0224451716922667,-0.017068216993676496,0.9890989348282976
3.90260173448966,408.6995222781004,0.18180817833769733,-0.008141834329593707,-0.023728537442911576,1.004449263139344
3.912608405603736,405.8842674880012,0.18156499862248496,-0.0018364558519030822,0.002983781448535515,0.9852804796250318
3.922615076717812,403.60451048500744,0.18132057111200792,0.026390527709341506,0.033057647961923856,0.9490017176400285
3.932621747831888,401.87322258430345,0.18107490546872473,0.00305908765815307,0.03456067372852497,0.9636707707816495
3.942628418945964,400.7002544326932,0.18082801140403856,-0.011155816089548581,-0.006201021540283081,0.9485913119307023
3.95263509006004,400.0922799605896,0.18057989867791324,0.001623525744926615,0.008939693852872863,0.9554296268366879
3.9626417611741163,400.0527584088203,0.18033057709848743,0.016577172113805258,-0.004297727467189709,0.9912226194672727
3.9726484322881923,400.5819146463092,0.18008005652168702,0.013136437120149702,0.019119867579970053,0.9397212486660718
3.9826551034022684,401.6767378906226,0.17982834685083543,0.0055036969344478825,0.011486382507831319,0.9484416587777971
3.9926617745163444,403.3309988386571,0.17957545803626207,-0.0050334013414604995,-0.04253953352107597,1.0082652464303756
4.0026684456304205,405.53528511000275,0.1793214000749091,0.021460660417867775,0.023675267661104313,0.9523007050296228
4.0126751167444965,408.2770548013141,0.1790661830099362,0.020759415707021295,-0.023188429653922378,0.9749819913228629
4.0226817878585726,411.5407078469775,0.17880981693032355,-0.013931016164015115,0.0031974913655436407,0.9792288626746638
4.032688458972649,415.30767478004884,0.17855231197047297,-0.0709260083217536,-0.0021958981890462317,1.0026699921740103
4.042695130086725,419.5565223884292,0.17829367830980736,0.014122626115801035,0.005677673451816828,0.9860633187882872
4.052701801200801,424.2630756651213,0.17803392617236827,-0.004617397989338422,-0.026455673708264026,1.0084506629197147
4.062708472314877,429.4005553586937,0.1777730658264117,-0.033022956955479264,0.0007982536496080948,0.9606640402786026
4.072715143428953,434.93973034132404,0.17751110758400224,-0.010779275619965958,0.01036895138653348,0.9628357704438814
4.082721814543029,440.8490839274759,0.17724806180060537,-0.020427944342872668,0.0021006411453246237,0.9802266008754662
4.092728485657105,447.0949931968983,0.1769839388746782,0.00886504271844219,-0.013112570800655823,0.9834530115272356
4.102735156771181,453.64192030163576,0.17671874924725825,-0.007247790434451351,0.026665603430083167,0.9998885064188359
4.112741827885257,460.45261466855476,0.1764525034015509,0.0024029585594678195,0.006118794222397721,1.024760233238324
4.122748498999333,467.48832494690083,0.17618521186251473,0.01182892683241203,-0.01030420294138865,0.9611403762509374
4.132755170113409,474.70901949494703,0.17591688519644572,-0.007278220290594737,0.007003068112214922,0.9599143023847356
4.142761841227485,482.07361415121846,0.17564753401055938,-0.016469942416579734,0.014634551699359306,0.9714351507901726
4.152768512341561,489.5402059943212,0.1753771689525715,-0.01784114818115233,-0.053685012517594784,0.9569870899885957
4.162775183455637,497.066311761336,0.17510580071027723,0.006001208847111974,0.003359622228137348,0.9643648432491824
4.172781854569713,504.6091095682248,0.17483344001112858,0.0018425278896644901,-0.01072696587765402,0.9643003456324072
4.182788525683789,512.1256825569197,0.17456009762181032,0.012725201791928787,0.0024807243350248856,0.983009463077626
4.192795196797865,519.573263082792,0.17428578434781444,-0.030882129204960737,0.05563775094546902,0.9981277176958309
4.202801867911941,526.9094760531286,0.17401051103301293,0.03911723210111768,0.0016012133797888115,0.9638620940718853
4.2128085390260175,534.092580032078,0.17373428855922912,0.02153061658080606,0.006131312624587873,0.9856643751614309
4.2228152101400935,541.0817047402231,0.17345712784580752,-0.009280644490552005,0.011870458290214119,0.9865407332042783
4.23282188125417,547.8370835974704,0.17317903984918218,-0.0038228369013400773,-0.009133442187397285,0.9597812266597098
4.242828552368246,554.32027998613,0.17290003556244357,-0.023336886406026065,0.012102920114414073,0.9777072166728629
4.252835223482322,560.4944059468058,0.172620126014904,0.018776303876523206,0.0038109491121497236,0.996925666293101
4.262841894596398,566.3243320627575,0.17233932227166168,0.024921761003678863,0.029665161732329748,0.9939130042297354
4.272848565710474,571.7768873385431,0.1720576354331631,-0.015824793184462525,0.0006684442029714096,0.9943439842713754
4.28285523682455,576.8210479356793,0.1717750766347645,-0.004241167311554025,-0.02139327234069715,0.9822881979715332
4.292861907938626,581.4281136914469,0.1714916570462915,0.027043516886305095,-0.0068961424539443214,0.9671631506152165
4.302868579052702,585.5718714164938,0.17120738787159762,0.015748295706309767,0.005334503321443078,1.0013467142045784
4.312875250166778,589.2287440421112,0.17092228034812135,0.0014681137022091511,0.01935100306905488,0.991344418288607
4.322881921280854,592.3779247685595,0.1706363457464419,-0.0014658470765725913,0.004527180698756549,0.9605609150195451
4.33288859239493,595.0014954511752,0.17034959536983368,-0.0052773099463705436,-0.010492662182024144,0.961488255761789
4.342895263509006,597.084528550669,0.17006204055381957,-0.003909688300959387,-0.02381777701756492,0.9956185105255082
4.352901934623082,598.6151720675346,0.16977369266572256,-0.0020717775758006176,0.008923688242268205,0.9529758830807912
4.362908605737158,599.5847169773161,0.16948456310421675,0.023641263679712612,0.0269583809939657,1.0003009050024025
4.372915276851234,599.9876467830389,0.16919466329887645,0.0057206490791056235,0.013796300626492584,0.9710822131835593
4.38292194796531,599.8216689028618,0.16890400470972441,-0.037338814929138806,-0.004257778753115785,0.9945955691395741
4.392928619079386,599.0877277143628,0.168612598826779,0.004410469884239839,0.022376909273507183,0.9902767016976197
4.402935290193462,597.7899991812394,0.1683204571695997,0.004526692949936825,0.0008218002263710929,0.9589150333048573
4.4129419613075385,595.935867092994,0.1680275912868319,-0.011881438629412629,-0.0277985124476939,0.9761755812647437
4.4229486324216145,593.5358810527987,0.1677340127557504,-0.006590765140276622,-0.0008150037479590774,0.9832837937485582
4.432955303535691,590.6036964525772,0.1674397331818016,0.03683562384674544,-0.0036604771001369748,0.9393530484410225
4.442961974649767,587.1559967768313,0.1671447641981449,0.02791120033903515,-0.013663215546131773,0.9755061833920777
4.452968645763843,583.2123986772916,0.16684911746519265,0.017908561811240047,0.010348117256262408,0.9678620495641961
4.462975316877919,578.7953403584869,0.16655280467014935,-0.02478083649432519,0.005046414898028304,0.9498156686892595
4.472981987991995,573.9299539093046,0.16625583752654957,0.008617032277225075,0.0038669349359008423,1.0117982848958254
4.482988659106071,568.643922306942,0.1659582277737949,-0.02203930781824646,-0.005336966421273648,0.9618823308332418
4.492995330220147,562.9673219068607,0.16565998717668992,-0.006749695801669915,-0.04635872096046684,1.0246424995606307
4.503002001334223,556.9324513149521,0.16536112752497711,0.013361001628558598,-0.012603919411546632,0.9941684458787527
4.513008672448299,550.573647615582,0.16506166063287075,0.013738774103060576,-0.02347263439280082,0.9558596717553334
4.523015343562375,543.9270910011444,0.16476159833858997,0.03218761184996417,-0.004938706198069987,0.9859112763782805
4.533022014676451,537.0305989147384,0.16446095250389073,-0.02354030574701971,-0.01915252147515328,1.0054693676515953
4.543028685790527,529.9234108772439,0.16415973501359687,0.014972225511648729,-0.01466583889127504,0.9669434248762969
4.553035356904603,522.6459652230917,0.16385795777513035,0.008479977024517844,0.013317038421383653,0.9477643435550069
4.563042028018679,515.2396690150514,0.16355563271804052,0.0149616971986543,0.00970113916088183,0.9849908281185227
4.573048699132755,507.74666244715917,0.16325277179353256,-0.011696797002337183,-0.01926366295968362,0.9556204748383347
4.583055370246831,500.2095790763019,0.16294938697399503,-0.00864988509768434,-0.0036289875171900943,0.9456219217360587
4.593062041360907,492.6713032466645,0.1626454902525265,-0.017808716030218667,-0.026781357812891194,0.9887269321534299
4.603068712474983,485.1747260872596,0.1623410936424616,0.011352835944667256,-0.011617248929020945,1.0070366563515605
4.613075383589059,477.7625014708534,0.16203620917689598,-0.013765058185000985,-0.06384207589559322,0.9652256532381651
4.6230820547031355,470.4768033228198,0.16173084890821077,-0.022842564017578875,-0.05613041502823549,0.942449409621092
4.6330887258172115,463.3590856608007,0.16142502490759597,-0.030217743811862544,0.01949571175834607,0.9923275143234981
4.643095396931288,456.44984673047134,0.16111874926457342,0.009092748533239837,-0.015738830470757154,0.951583608656929
4.653102068045364,449.78839857944547,0.1608120340865188,0.016538421820889448,-0.02466742553262341,0.9464348291958347
4.66310873915944,443.4126433803854,0.16050489149818312,0.036804606351828736,-0.005910688375297238,0.9806648129304556
4.673115410273516,437.358857775984,0.16019733364121322,0.017089669016665053,0.017748968983694928,0.9679989788978538
4.683122081387592,431.66148647286303,0.15988937267367193,0.04128048456468214,-0.025107416320614747,0.9916100329764416
4.693128752501668,426.3529462587757,0.15958102076955752,0.0046752700389170974,0.020282194970994767,0.9895548093530867
4.703135423615744,421.4634415582268,0.15927229011832228,-0.01816230848982824,0.0069270290064299515,1.0187613457320874
4.71314209472982,417.0207925759513,0.15896319292439082,0.00940136511394638,0.022357484005446945,0.9760824731227381
4.723148765843896,413.05027700607445,0.15865374140667743,0.010702607566819556,-0.004394475826302115,0.9752741618596283
4.733155436957972,409.57448620760357,0.1583439477981033,-0.002016995123269339,-0.00814861720178964,0.9504607644762104
4.743162108072048,406.6131966645685,0.15803382434511273,-0.016170018327121526,0.001025085446659297,0.9684011133167939
4.753168779186124,404.1832574621851,0.15772338330718907,-0.026947250198757,0.004793231426289916,0.9582114711112111
4.7631754503002,402.29849441927234,0.15741263695637017,0.005104932892566471,0.009956126982991056,0.9311883240229758
4.773182121414276,400.9696314223871,0.15710159757676317,-0.023900342808211242,-0.0181007073472769,0.9604429269083232
4.783188792528352,400.20422940927267,0.15679027746405894,-0.015121858529029291,-0.033067734232126784,1.0032945338546635
4.793195463642428,400.00664334878866,0.15647868892504596,-0.008234958112626438,-0.02034066222344817,0.9734624275566758
4.803202134756504,400.3779974620968,0.1561668442771239,0.035544221108379744,-0.0015675805017963396,0.97262782309778
4.81320880587058,401.31617882609066,0.15585475584781672,0.010568040538355524,0.0014697119487380229,1.0216481968652193
4.8232154769846565,402.8158493954623,0.1555424359742852,-0.007220766433061659,-0.04243973622340463,0.9825551647193188
4.8332221480987325,404.868476375005,0.15522989700283932,-0.018226391750117893,0.02124637183877142,1.0085063630342321
4.843228819212809,407.4623807693373,0.15491715128845035,-0.02730343741558905,-0.008587120326858648,0.9845693273497067
4.853235490326885,410.5828038338156,0.15460421119426218,-0.032619307512103735,0.02120476635759685,0.9966378512086528
4.863242161440961,414.2119910485386,0.1542910890911028,0.013798975217991267,-0.013947981343871927,0.9898532591518928
4.873248832555037,418.3292931376564,0.15397779735699518,-0.0015419397938752422,-0.019023642079596205,0.9767551676741594
4.883255503669113,422.9112835592013,0.15366434837666795,-0.013986983221124002,-0.03818037603249271,0.9466334736286763
4.893262174783189,427.9318917969495,0.1533507545410658,-0.0040980036724450695,0.007216518044587663,0.9921960254363348
4.903268845897265,433.3625516959195,0.15303702824685977,0.006236048148511291,-0.03095385426393187,0.9819200611051324
4.913275517011341,439.17236399749737,0.15272318189595707,0.02645082566608758,0.0007378604861925959,0.9708550559863548
4.923282188125417,445.328272149416,0.15240922789501088,0.0004425183889433758,0.010484178899932136,1.0037921743832785
4.933288859239493,451.7952503902545,0.15209517865492989,0.03328012602456418,-0.005310398163615183,1.0079752553223615
4.943295530353569,458.53650303830375,0.15178104659038769,6.544580366660376e-05,0.009648796957788825,0.9639406768150569
4.953302201467645,465.5136738508943,0.15146684411933195,-0.0011773753357762456,0.004969925382877345,0.973816522221025
4.963308872581721,472.6870642629638,0.1511525836624937,0.0009487716604642082,0.009756857479758397,0.9874326790319176
4.973315543695797,480.01585926315215,0.1508382776428961,0.0002049089115459526,0.04439967624967691,0.98850645606622
4.983322214809873,487.4583596222239,0.15052393848536344,-0.005171751950627285,0.017748084489379635,0.9984071322951952
4.993328885923949,494.9722191524953,0.1502095786160301,0.015226392391412545,-0.03236289774875211,0.9750575295654172
5.003335557038025,502.51468564831885,0.14989521046184912,0.008005259882982296,-0.0008521713014628798,0.9779339575930808
5.013342228152101,510.0428441367144,0.14958084645010106,0.01352652128286327,-0.03364029417119655,0.9820760941246622
5.0233488992661774,517.5138610541103,0.1492664990079027,-0.03207131338582414,0.028103048982661992,0.9854070224047912
5.0333555703802535,524.8852279598901,0.14895218056171594,0.022466383572033496,0.0005246944940868575,1.0007908082722048
5.0433622414943295,532.1150034000507,0.14863790353685624,0.025544702032795023,0.014636833503359906,0.9624098306316923
5.053368912608406,539.1620515448421,0.14832368035700183,0.0038800329873000844,8.834391537451668e-05,0.9934089192142643
5.063375583722482,545.9862762425756,0.14800952344370227,0.00993478056034435,0.015536100748161115,0.9956039635033568
5.073382254836558,552.548849157893,0.14769544521588757,0.007704857348613655,0.025289346435722847,0.9569505430619353
5.083388925950634,558.8124306964461,0.14738145808937725,0.014702265260220075,0.001763685990897964,0.971762451825468
5.09339559706471,564.7413824589598,0.14706757447638946,0.0005600145679686794,-0.010665687065138133,0.9795798715997779
5.103402268178786,570.301970015877,0.14675380678505037,-0.01628900616829411,-0.004700679337647089,0.9545287184068071
5.113408939292862,575.462554848831,0.14644016741890373,-0.03317989865591414,-0.03762782475105459,0.9944990087367703
5.123415610406938,580.1937743668442,0.14612666877642033,-0.010691616526221717,0.0074599924558343056,0.9964109275701573
5.133422281521014,584.4687089730063,0.14581332325050816,0.018044021775247977,-0.015829612719234647,0.9769329186543503
5.14342895263509,588.2630352310482,0.14550014322802227,0.005186699837245962,-0.006307065087327006,0.9951066675247117
5.153435623749166,591.5551642603388,0.14518714108927525,-0.007147877550889269,0.0031964831722755644,0.9781137139999616
5.163442294863242,594.3263645718596,0.14487432920754773,-0.03808163973784451,0.025241376630949657,0.9932639637942363
5.173448965977318,596.5608686462501,0.14456171994859926,-0.02264702041316363,0.002035595517608506,0.9850593031026659
5.183455637091394,598.2459626475222,0.14424932567017962,0.029972936548876755,-0.011272261659327628,0.9820065349825259
5.19346230820547,599.3720587619842,0.14393715872154014,-0.006042216357841118,0.005886281831166193,0.9656825775682913
5.203468979319546,599.9327497507904,0.14362523144294556,-0.02372469015844922,-0.017124901312706525,1.0217866802681221
5.213475650433622,599.9248454057181,0.1433135561651863,0.016089450082783802,-0.015532062106553914,0.9836060993775552
5.223482321547698,599.3483907007493,0.14300214520909085,-0.014563648995859673,0.011429988146506885,0.9850295545967683
5.2334889926617745,598.2066655361799,0.14269101088503885,-0.019437466569357513,0.022125952934817453,0.9790751013418288
5.2434956637758505,596.5061660767078,0.14238016549247443,-0.034641740561262624,0.009349142680751078,0.9617032392417141
5.253502334889927,594.2565677896888,0.14206962131941994,0.0005411416158936039,-0.06652921378453854,0.9971981011411548
5.263509006004003,591.4706703938559,0.14175939064199022,0.01959655026216913,0.04451226330755281,0.9907862660821977
5.273515677118079,588.1643250317419,0.14144948572390736,-0.005444829557721503,-0.020248089947571147,0.9512360313813252
5.283522348232155,584.3563440801679,0.14113991881601584,0.013875535508393516,-0.023944125243360925,0.9988744423324735
5.293529019346231,580.0683941119631,0.1408307021557983,0.014483628273375604,-0.023854233440918363,0.9803249442032324
5.303535690460307,575.3248726179402,0.14052184796689166,-0.0425650510124304,0.03359710700266992,0.9948071682761604
5.313542361574383,570.1527691905429,0.1402133684586041,-0.04649314055109976,0.028358090671081332,0.9853472325386442
5.323549032688459,564.5815119590139,0.13990527582543222,-0.009739410926025253,-0.0011761534445864296,0.9845734255886087
5.333555703802535,558.6428001498186,0.13959758224657914,0.017750424791135373,-8.150091789555171e-05,0.9773227629260559
5.343562374916611,552.3704237250295,0.13929029988547295,-0.06414954733619148,0.007772359758341466,0.9727325282478739
5.353569046030687,545.8000711248875,0.13898344088928588,0.015371921394482107,0.017337796273754914,0.9626313461275179
5.363575717144763,538.9691262084334,0.13867701738845414,-0.024595423502878307,0.025512379812392193,0.9656794906171534
5.373582388258839,531.91645554759,0.1383710414961984,0.017467498831322335,-0.01373962817948352,1.0122719641418914
5.383589059372915,524.6821872849237,0.13806552530804483,0.030733768017629608,0.004301392926962735,0.9950293760719187
5.393595730486991,517.3074828133549,0.13776048090134727,-0.014347590664914334,0.0015702237235491298,0.9836773990749088
5.403602401601067,509.834302576901,0.13745592033480933,0.014334802641538498,0.023173763694416278,1.002167178646519
5.413609072715143,502.30516732498796,0.13715185564800808,-0.009097027610345235,-0.002385470482405224,1.0056118774081533
5.423615743829219,494.7629161787546,0.13684829886091796,0.010538077421013562,-0.06551866201112076,0.9557523201709389
5.4336224149432955,487.2504628858916,0.13654526197343564,-0.026822022557356,-0.03241661075948106,0.9960975760171236
5.4436290860573715,479.81055165086445,0.13624275696490562,-0.025261811518513866,-0.004322937061353786,0.9939745527415484
5.4536357571714476,472.4855139298114,0.1359407957936467,0.02065103374904735,-0.012307619485374127,0.9691182942553541
5.463642428285524,465.31702757387745,0.13563939039647932,-0.0014223415209985316,-0.02543403351172038,0.9840803620643201
5.4736490993996,458.3458796914233,0.13533855268825357,0.033709610346600784,-0.006169454210944676,0.9644973638331428
5.483655770513676,451.61173457836566,0.13503829456137825,-0.016061311674155847,-0.003254565372608629,0.9667038667606906
5.493662441627752,445.15290803706523,0.13473862788535082,-0.03233820275022709,-0.017632237350378194,0.9674913986548715
5.503669112741828,439.0061493678565,0.134439564506288,-0.03285627386016753,0.008184817396696197,0.9623345609705259
5.513675783855904,433.20643227361904,0.13414111624645758,-0.001316990845653477,0.03909825415113397,0.9751489720152973
5.52368245496998,427.786755867114,0.13384329490381122,0.029691840011156097,0.0253365381356037,0.9775767917860053
5.533689126084056,422.7779569133023,0.13354611225151783,-0.028813424872096483,-0.009758088786072323,0.9465987331231992
5.543695797198132,418.2085343749412,0.13324958003749826,0.0008887861263210614,-0.050359564492195946,1.0087962569787443
5.553702468312208,414.10448725976755,0.13295370998396094,0.02263546841510705,-0.03133171722009889,1.0101164208589044
5.563709139426284,410.4891666918669,0.13265851378693846,-0.010579060413382921,-0.016124540074073154,0.9410382816371
5.57371581054036,407.3831430489231,0.13236400311582514,0.0031081975419044857,-0.006865861898511762,0.9674715880103585
5.583722481654436,404.80408892130083,0.13207018961291583,0.021319671113117198,0.010098406090230945,0.9919117406646095
5.593729152768512,402.76667855889707,0.13177708489294565,-0.01288346631269189,-0.008292673618020746,0.9625419632105523
5.603735823882588,401.2825043778936,0.13148470054263084,-0.025768147139982184,-0.006550756402761441,0.9744238929128941
5.613742494996664,400.3600110024607,0.13119304812021065,0.009349115671025842,-0.0005451432625325931,0.9997562467929317
5.62374916611074,400.00444721670686,0.1309021391549906,0.004649993618298707,-0.0024454999573134844,0.9876623433296579
5.633755837224816,400.21783610025307,0.13061198514688663,-0.016380590064430767,0.00823737378403853,0.9684947068668165
5.6437625083388925,400.998963517355,0.13032259756597034,-0.020763074802243504,-0.01937497822781611,0.9966731249499837
5.6537691794529685,402.3433850250686,0.13003398785201586,0.02015188621476999,-0.04154162995400906,0.9817754742620716
5.663775850567045,404.24345116115063,0.1297461674140474,-0.011426906844591538,0.01559321427040771,0.9902022206838473
5.673782521681121,406.6883509678151,0.12945914762988842,0.03414153587951236,0.033372883758283324,0.9909145562262905
5.683789192795197,409.6641735037001,0.1291729398457116,0.033926287081571034,0.017764229179412817,0.983182944648193
5.693795863909273,413.1539869940615,0.12888755537559057,-0.023162777184173,0.00010820419680754721,0.9821295641516815
5.703802535023349,417.1379351688414,0.12860300550105258,-0.030272505379005606,-0.001012962135659089,0.9872352831538286
5.713809206137425,421.5933502404695,0.12831930147063236,-0.02604513892665539,0.019057183426467818,0.9617869314043197
5.723815877251501,426.494881878584,0.12803645449942774,0.0018864061370509853,0.01435259582984478,0.9906769858028817
5.733822548365577,431.8146414478244,0.12775447576865612,-0.008897787279173053,-0.022805897884426263,0.9934011170447536
5.743829219479653,437.52236068802637,0.1274733764252124,0.010650350241300833,-0.026395156949837843,1.0129819073826472
5.753835890593729,443.5855639339541,0.12719316758122862,-0.039432366546015125,0.02847611631177111,0.9997362757438544
5.763842561707805,449.9697528946799,0.12691386031363436,-0.022146361722026445,-0.008666436572348286,0.9955376736270347
5.773849232821881,456.63860294126476,0.1266354656637191,0.04762288529685088,-0.0377362914378641,0.9577580949700902
5.783855903935957,463.5541697858911,0.1263579946366956,-0.03695093709448926,0.0008614689673082302,0.9610342685927457
5.793862575050033,470.67710537650663,0.12608145820126485,0.01771177305120226,-0.00026068518277253824,0.9962892125421993
5.803869246164109,477.96688177857163,0.12580586728918264,0.01780549869910234,-0.010552326809025236,0.9730519382187801
5.813875917278185,485.38202177007736,0.12553123279482725,0.04335080168057903,-0.011569571478228844,0.9787649044063816
5.823882588392261,492.8803348378075,0.1252575655747688,-0.006964384604385215,-0.04153263323074157,0.9815246027284089
5.833889259506337,500.41915723206,0.12498487644734012,0.04614783120527752,0.0019379205523138725,1.0020837748237656
5.8438959306204135,507.9555947139899,0.12471317619220913,0.013536968297054924,0.004253603711797403,0.973031958140769
5.8539026017344895,515.446766614378,0.1244424755499526,0.07350433976846209,-0.010846093948881433,0.9531137910883194
5.863909272848566,522.8500498151916,0.12417278522163164,-0.011259684847730827,-0.003083697944045516,1.0303446209348281
5.873915943962642,530.1233212657409,0.12390411586836869,0.02213021939235004,-0.01715353376523931,0.9816682954449266
5.883922615076718,537.2251976535579,0.12363647811092603,-0.014756948640723543,-0.005554855676324098,0.9847391883752707
5.893929286190794,544.1152708663258,0.12336988252928595,0.04650561829285827,-0.0017542239470373943,0.9780728649128062
5.90393595730487,550.754337905143,0.1231043396622325,-0.007248374044631082,-0.022593943346609826,0.9969835476526733
5.913942628418946,557.1046239409457,0.12283986000693495,0.011622071976175386,0.049238490486325615,0.9485420184687826
5.923949299533022,563.1299972449694,0.12257645401853265,0.014356615000626113,-0.010249216607169261,0.9971780394024957
5.933955970647098,568.7961747703248,0.12231413210972196,0.0028125684666260604,0.02573250478596913,0.938881274095634
5.943962641761174,574.0709172149814,0.12205290465034446,0.018794278239754866,0.005070381425947461,0.998793938397965
5.95396931287525,578.9242124562982,0.12179278196697711,-0.012415265278388623,0.007803718558406459,0.9857014317062481
5.963975983989326,583.3284463133878,0.12153377434252395,-0.009828134118314272,-0.01652813960421875,1.0070678376546809
5.973982655103402,587.2585596657248,0.12127589201580968,0.014866311130846886,-0.027401249283890712,0.9514882815574824
5.983989326217478,590.6921910340214,0.1210191451811749,0.004769966703601188,-0.02021477328540257,0.983956382091729
5.993995997331554,593.6098038121182,0.12076354398807301,0.0397355024384681,0.024597975272588654,0.9802272114836224
6.00400266844563,595.9947974259713,0.12050909854066919,0.01889444277835824,-0.007821826676521034,0.956862841008833
6.014009339559706,597.8336017872604,0.12025581889744077,0.014984366747879467,0.006958926919480503,1.0290482788019024
6.024016010673782,599.1157545042036,0.12000371507077978,0.006333503368054386,0.008081981398681238,0.96141180468242
6.034022681787858,599.8339604102616,0.11975279702659701,0.0009584109246731081,0.021144784815413327,0.994997098990431
6.044029352901934,599.9841330720282,0.11950307468392815,0.016321778595977415,0.051538032895100845,0.9987786796852993
6.0540360240160105,599.5654180401364,0.11925455791454163,-0.0477293779210694,-0.009161275220286173,0.9554405901154028
6.0640426951300865,598.5801977108874,0.11900725654254835,0.009225544830426409,0.0076751529540056655,1.0091094460750132
6.074049366244163,597.03407777094,0.11876118034401341,0.029043583811100712,-0.025673257644323412,1.0058609665686424
6.084056037358239,594.9358553021882,0.11851633904656958,-0.012511406819916472,-0.0062180278963244445,0.9769667740291882
6.094062708472315,592.2974687283038,0.11827274232903282,0.027851672376028362,0.011144339255045252,0.9693605239221167
6.104069379586391,589.133929887734,0.11803039982101957,0.00946699935354956,0.03250421509013922,0.9776703261304133
6.114076050700467,585.4632386196481,0.11778932110256621,-0.014236956669402109,-0.002610283597826452,0.9828465535446193
6.124082721814543,581.3062803488185,0.11754951570375019,-0.007062277139099672,0.007355815011121313,0.9949171938967547
6.134089392928619,576.6867072521516,0.11731099310431346,-0.017725746040933944,0.0052400826163855755,1.003071159196009
6.144096064042695,571.630803683014,0.11707376273328768,-0.011533958007854362,0.020048021550318023,0.9610247449839008
6.154102735156771,566.1673366190493,0.11683783396862135,-0.0012291353727998538,0.015459536599512632,0.9541811144287513
6.164109406270847,560.3273919844116,0.11660321613680934,0.010416732130497175,-0.011546155268728708,0.9686722152765671
6.174116077384923,554.1441977777079,0.11636991851252393,0.0054670894612284734,0.029387379114772773,0.9821905546498603
6.184122748498999,547.6529350119998,0.1161379503182484,-0.015140699195610572,0.023494786420548225,0.9639130512767548
6.194129419613075,540.890537542594,0.1159073207239123,-0.018392566227022497,0.015862986375532247,0.9765197713597745
6.204136090727151,533.8954819215363,0.11567803884652902,0.0015394480030267203,-0.013134121400096295,0.9958990069828223
6.214142761841227,526.7075684745078,0.11545011374983545,0.0031292404984830653,9.871927300808906e-05,0.9650137649225613
6.224149432955303,519.3676948457405,0.11522355444393353,-0.036824526693545294,-0.0019199569077861195,0.981415786994357
6.234156104069379,511.9176232994257,0.1149983698849342,0.0020173661673973365,-0.020171044639612647,0.9931391830329881
6.244162775183455,504.39974310163467,0.11477456897460328,0.021534136466154888,-0.004133143157553367,0.9932303919773946
6.2541694462975315,496.8568293347275,0.11455216056000965,0.014262075945371289,-0.03259473427950835,1.0018444234026178
6.2641761174116075,489.33179951655825,0.11433115343317542,0.02727590193242471,-0.0008736626355865389,0.9979572574421331
6.274182788525684,481.8674694092542,0.11411155633072845,-0.008717709919599198,-0.028717918345603357,0.988811537254329
6.28418945963976,474.5063094069554,0.11389337793355697,0.01785082270577694,-0.04827698599163816,0.9985691854276295
6.294196130753836,467.29020288863217,0.11367662686646637,-0.011835730861159655,-0.006723758500841204,1.0111592791888646
6.304202801867912,460.2602079108802,0.11346131169783832,-0.022874555091328422,0.020029054597949632,0.9721910205953547
6.314209472981988,453.4563235966241,0.113247440939292,0.00776122784180744,-0.0217424945693104,0.9768938397634753
6.324216144096064,446.91726254892046,0.11303502304534765,-0.002199120216003983,0.01368421238194628,0.9874522918011862
6.33422281521014,440.6802305847702,0.11282406641309237,0.015444357109785286,-0.048132241902151256,1.0365682878276399
6.344229486324216,434.7807150422165,0.1126145793818481,0.02122074484348836,-0.013167538377304042,0.947764989214214
6.354236157438292,429.2522828652105,0.11240657023284206,-0.009299064563434335,0.0007078217604318324,0.9705027276357601
6.364242828552368,424.1263896150896,0.11220004718887938,0.013164614327193099,0.013244829777982428,0.9966829739363099
6.374249499666444,419.4322004953665,0.11199501841401792,0.015900369528746003,0.0014063779177726557,0.9429230884683606
6.38425617078052,415.19642440814226,0.11179149201324566,-0.01668124679365433,0.0068146004986523664,0.9589293211760783
6.394262841894596,411.4431619863377,0.11158947603216027,0.0167451642020418,-0.006818198830008272,0.9724676762819678
6.404269513008672,408.1937684664018,0.11138897845665102,-0.0016254687986988427,-0.005446067226767694,0.9757671610270242
6.414276184122748,405.46673218171804,0.1111900072125832,0.009586848646749404,0.017901915653081257,0.9725619305098808
6.424282855236824,403.2775693680619,0.11099257016548462,0.024522268452037605,-0.006976252055220353,0.9562341464336347
6.4342895263509,401.6387358796357,0.11079667512023486,-0.020946577545568414,0.0023742364893880163,0.9798687268606381
6.444296197464976,400.55955631800236,0.11060232982075666,-0.01354512063604859,-0.011391523893522612,0.9860859663485726
6.454302868579052,400.04617097715663,0.1104095419497097,-0.002313908873172882,0.021857835361188883,0.954690465197863
6.4643095396931285,400.1015009066044,0.11021831912818714,0.026473468061466852,0.025954996904297097,0.9446725676308857
6.4743162108072045,400.72523129123465,0.11002866891541406,-0.004567513342291385,-0.021098576883363918,0.9956948984645226
6.484322881921281,401.913813242548,0.10984059880844887,-0.004836538394049218,0.007269198103525461,1.0176877060652099
6.494329553035357,403.66048399105074,0.10965411624188684,0.008993459266545985,0.0008047989066644462,0.981105272421942
6.504336224149433,405.95530536492316,0.10946922858756615,0.03140424654196212,-0.003214131077549892,1.0028039649985874
6.514342895263509,408.78522033602894,0.10928594315427662,-0.018234988959762652,0.030874460885862157,0.9477661902490079
6.524349566377585,412.1341273115278,0.10910426718747065,0.01519470368490211,0.010789877124311571,0.9798402740098218
6.534356237491661,415.98297174839365,0.10892420786897689,-0.0033183186426955008,-0.006246235062204374,0.9953154268984898
6.544362908605737,420.3098545695669,0.1087457723167163,0.020006336158717275,-0.028098815043183917,0.9689516871269497
6.554369579719813,425.09015676487735,0.10856896758442075,0.05490560053497805,-0.006102494754602244,0.9814960627808182
6.564376250833889,430.296679467792,0.1083938006613542,-0.01032370678335321,0.04356357295720395,0.9973425245703051
6.574382921947965,435.8997987109735,0.10822027847203647,-0.005876599257308044,-0.006990846678529358,0.9585895246770101
6.584389593062041,441.8676339801271,0.10804840787596937,0.014184986635667578,0.001816181943888667,0.9720226257972504
6.594396264176117,448.16622960710845,0.10787819566736565,0.02636491326649415,-0.02213810709878389,0.9973291833222858
6.604402935290193,454.75974797019154,0.10770964857488036,0.016430946211192718,0.00758246150194776,0.9660218770109642
6.614409606404269,461.61067340224645,0.1075427732613449,0.012035967792981939,0.00041566170549410373,0.998347836260375
6.624416277518345,468.6800256466199,0.10737757632350364,0.004494701708431258,-0.0032391759840487144,0.9436806073936204
6.634422948632421,475.9275816462075,0.10721406429175309,0.01254086663070296,-0.0005324231828632398,1.0125501873489726
6.644429619746497,483.3121044037932,0.10705224362988372,-0.0216397035625267,-0.02251536140922343,0.9867666124833647
6.654436290860573,490.7915776114752,0.10689212073482457,0.013694620252641452,-0.005400844709395423,1.0454590900218705
6.6644429619746495,498.32344471420714,0.10673370193639029,-0.012544981137675748,-0.0002470061358711839,0.9570474318406951
6.6744496330887255,505.86485104722084,0.1065769934970309,0.00835416454122124,0.0012743868008246685,0.9677259654754078
6.684456304202802,513.3728876696268,0.10642200161158426,-0.0007575364598863636,0.00979340231787802,0.9955236482329428
6.694462975316878,520.8048355068416,0.10626873240703118,0.025755666941165486,0.02392253426306461,1.0098429222012473
6.704469646430954,528.1184084127062,0.10611719194225319,0.050188749370831474,0.024843250353968418,0.9582965268387477
6.71447631754503,535.2719937683491,0.10596738620779309,0.009443801565143963,0.0041516330862703685,0.9499178239625696
6.724482988659106,542.2248892488186,0.10581932112561807,0.029705899113452755,-0.011604842451525741,0.9763356575080567
6.734489659773182,548.937534410345,0.10567300254888558,0.0061278148976057845,-0.011380302601549859,0.9713226136427704
6.744496330887258,555.371735780556,0.1055284362617121,0.023091624003479895,-0.005829168860552858,0.9820430832159265
6.754503002001334,561.4908841709165,0.10538562797894432,-0.013659636947550527,0.021433351746352143,0.9941440487182851
6.76450967311541,567.2601629749516,0.10524458334593331,0.008798216960079836,-0.0035196087993414065,0.951715645506439
6.774516344229486,572.6467462670671,0.1051053079383114,-0.0073477601474699495,0.014384933942096438,0.9691991090655196
6.784523015343562,577.6199855748333,0.10496780726177157,-0.00323386124062896,-0.037521481318037425,1.004921993715329
6.794529686457638,582.1515842620458,0.1048320867518501,-0.01492169054806086,-0.00019437999808870083,0.9909087652178117
6.804536357571714,586.2157585303507,0.10469815177371147,-7.622661564469246e-05,-0.001355401729325708,0.9591854689869086
6.81454302868579,589.789384123377,0.10456600762193632,-0.02791040337153256,0.004450339796442709,0.987536677288304
6.824549699799866,592.852127898664,0.10443565952031221,-0.015536145302266768,0.009657082552133505,0.960319140823154
6.834556370913942,595.386563518761,0.10430711262162708,0.004925758265078553,0.0011016169418273912,0.9615177922936025
6.844563042028018,597.3782706032504,0.10418037200746555,-0.00034892987717874565,-0.018823382042077976,0.9521741861417713
6.854569713142094,598.8159167775352,0.10405544268800802,0.0001386088169636928,0.003104323550868509,0.9718410839420946
6.8645763842561704,599.6913221515541,0.1039323296018327,0.0006374385016323665,0.02632075100966713,0.9955661002091261
6.8745830553702465,599.9995058615547,0.10381103761572026,-0.02558583714304701,-0.013306250175802394,0.972251018769481
6.8845897264843225,599.7387144101108,0.10369157152446154,0.014692070895384931,-0.03151642384977704,0.9689926281621067
6.894596397598399,598.9104316431366,0.10357393605066795,-0.006248966061386435,-0.032624665947381185,0.986868580739508
6.904603068712475,597.5193703071299,0.10345813584458483,-0.0032061739331065106,0.009479399576797005,0.9836674403667123
6.914609739826551,595.5734452346836,0.10334417548390756,-0.020902942505233283,0.014054758404422009,1.0004530695113072
6.924616410940627,593.0837283108303,0.10323205947360065,0.00874477310930507,0.0008787990811127092,0.9709753150059602
6.934623082054703,590.064385476457,0.1031217922457196,-0.02418676687115509,-0.02603189142155989,0.9593529145575779
6.944629753168779,586.5325961272198,0.10301337815923581,-0.015444004475792875,0.021289454877746566,0.9975509402392589
6.954636424282855,582.5084553665675,0.10290682149986413,-0.03645010790806372,-0.012007228133312326,0.9936511754834106
6.964643095396931,578.0148596690311,0.10280212647989351,0.007954372768703316,-0.0027878251491607804,0.9794311043019202
6.974649766511007,573.077376604324,0.10269929723802046,0.000546605047516393,0.008530710704718303,0.9794858955717042
6.984656437625083,567.7240993635035,0.10259833783918548,-0.0006657797549380102,-0.02281681831626451,0.9946354326076656
6.994663108739159,561.9854869149038,0.10249925227441237,0.0005996778548984573,-0.0011050103811929334,0.9831463904519748
7.004669779853235,555.8941906993113,0.10240204446065038,-0.0037067974340934096,-0.004683832931401806,0.9726296789681953
7.014676450967311,549.4848688504628,0.10230671824061943,-0.001445926840359347,0.02672842430846337,0.9776765148650949
7.024683122081387,542.7939889978956,0.10221327738265829,0.02407359722808653,0.026168968381688928,0.9874867244322593
7.034689793195463,535.8596207741687,0.10212172558057539,-0.0032935964870465847,-0.008980871799746102,0.9867028202358405
7.044696464309539,528.721219207042,0.10203206645350303,0.01095747296377514,0.011221142400346693,0.9799498181546348
7.054703135423615,521.4194002290543,0.10194430354575418,0.007609000505154691,-0.013659473266607767,0.9844151785645424
7.064709806537691,513.9957095818188,0.1018584403266824,0.0017236080329316565,0.026419326125337195,0.9785300610667399
7.0747164776517675,506.4923864299,0.10177448019054473,0.015751980458649006,0.010193534808660231,0.9816718481685728
7.0847231487658435,498.9521230292734,0.10169242645636745,0.008262860458868445,-0.013765454239783257,0.9597255398092549
7.09472981987992,491.41782181779496,0.10161228236781492,-0.02588219121899964,0.00341100241275013,0.988669059221961
7.104736490993996,483.93235130977473,0.10153405109306135,-0.012512747493696061,-0.027357699963332035,0.9788015774712077
7.114743162108072,476.53830218357894,0.1014577357246655,-0.04530038012750934,0.01451531312017203,0.9801339925480537
7.124749833222148,469.2777449500465,0.10138333927944856,-0.010675315156906095,0.0063588263506499515,0.9715517634325287
7.134756504336224,462.1919905805514,0.10131086469837473,-0.0356766869230631,0.031073655010806167,1.0124281590418167
7.1447631754503,455.32135545667717,0.1012403148464351,0.028588605365325443,0.006907364324684493,1.002784439710262
7.154769846564376,448.7049319788814,0.1011716925125343,0.02233089138318632,-0.005793732195928475,0.9796306466603523
7.164776517678452,442.3803661393532,0.10110500040938031,-0.02092546736722894,-0.030073564379914375,1.0014044083579794
7.174783188792528,436.3836433246059,0.10104024117337718,-0.020128094893989538,0.02071070218299122,1.0397587655108234
7.184789859906604,430.7488835665555,0.10097741736452084,0.02941343486019437,0.006188414608141216,0.9527030974390942
7.19479653102068,425.5081474070571,0.10091653146629789,-0.02598742464619579,-0.03162254345033224,0.9930577871973324
7.204803202134756,420.6912534804798,0.10085758588558745,0.02089331690445105,-0.00700896194821802,0.9916256491493516
7.214809873248832,416.32560885224746,0.10080058295256594,-0.04710219647163036,0.0038999324955038706,0.9844823681622131
7.224816544362908,412.43605307867415,0.10074552492061509,0.012850499044756252,-0.017191599468237284,0.9870471052418948
7.234823215476984,409.04471687535784,0.1006924139662327,0.030304288183495204,0.008884193541843822,1.004383319600813
7.24482988659106,406.17089619828573,0.10064125218894676,0.012684705893965469,0.016557909506181974,0.9415893482727663
7.254836557705136,403.83094245409313,0.10059204161123236,-0.023995958623491912,0.004790932997180601,1.0059400123552487
7.264843228819212,402.0381694641623,0.10054478417843178,0.0018791898092996345,0.022823649554276005,0.999505828176304
7.2748498999332885,400.802777711912,0.10049948175867754,0.03345387988203884,0.01255875575539642,0.9994586355785797
7.2848565710473645,400.13179630429215,0.10045613614281856,-0.020378270536585325,-0.022151265219743695,0.9678226141923152
7.2948632421614406,400.02904297771516,0.1004147490443495,-0.00936872840745414,0.011008864671853585,0.9893730155499472
7.304869913275517,400.49510237597576,0.10037532209934276,-0.03512309879988796,-0.004988145705410301,0.9664579473553769
7.314876584389593,401.5273227237568,0.10033785686638408,-0.025506308244502993,-0.04789140385608958,0.9790755752446726
7.324883255503669,403.1198309146466,0.10030235482651076,-0.027119125760637637,-0.02192251197128458,0.972317743116803
7.334889926617745,405.26356592782145,0.10026881738315313,-0.0063823832925733815,-0.005793499716840352,0.9991587067201592
7.344896597731821,407.94633038325674,0.10023724586207913,0.05909620289298902,-0.0037352294692366665,1.00010408659962
7.354903268845897,411.15285994213417,0.1002076415113419,-0.018982643694395007,-0.003647965497422502,0.9575557147775783
7.364909939959973,414.86491015756695,0.10018000550123032,-0.02215779163708606,0.004637702903635768,0.9253509627150803
7.374916611074049,419.0613602814825,0.10015433892422293,-0.0019449026389879518,-0.017810461289249218,0.9786703722255392
7.384923282188125,423.71833343702923,0.1001306427949446,-0.0005957151056950881,0.007748130782400046,0.9541333048511146
7.394929953302201,428.80933247274356,0.10010891805012653,0.004045028672670955,-0.00823563553563159,0.9904878239206795
7.404936624416277,434.3053907255078,0.10008916554856909,-0.024509165444869453,-0.023986596421430896,0.9784771601377192
7.414943295530353,440.1752368344819,0.10007138607110802,0.001536040400538854,0.0025751375567737013,0.9930384978445954
7.424949966644429,446.38547266825685,0.1000555803205834,0.010999590557567709,-0.03572151964342594,0.9662959640073057
7.434956637758505,452.9007633528685,0.10004174892181206,0.008012779799864705,-0.009034460591074467,0.9932936610637004
7.444963308872581,459.68403831944636,0.10002989242156268,0.015141141253418847,-0.014953284409139492,0.9907257747361
7.454969979986657,466.69670222758236,0.10002001128853434,0.034182856478293805,0.0147040243578885,0.9792545298159789
7.464976651100733,473.8988545643212,0.10001210591333787,0.022751401138168245,-0.006096717399531441,0.981760561410885
7.474983322214809,481.24951666928473,0.10000617660848049,-0.020436658165830675,-0.013367419178356712,0.9736051260441446
7.4849899933288855,488.7068648942279,0.10000222360835342,-0.02774708141983803,0.0026638515671697604,0.9603878392308184
7.4949966644429615,496.2284685703829,0.10000024706922264,0.01652140621081782,-0.010459311926096193,0.9790032048357112
7.505003335557038,503.7715314296159,0.10000024706922264,0.041952966324795185,-0.02148539319709115,1.0220072914411185
7.515010006671114,511.29313510577094,0.10000222360835342,-0.030349964878527348,-0.003466063974583508,0.9531257524978987
7.52501667778519,518.7504833307141,0.10000617660848049,0.035650847484946645,-0.010380137158350518,0.9770029585459215
7.535023348899266,526.1011454356777,0.10001210591333787,0.006343106246668495,0.0022534799766325713,0.9869950043983238
7.545030020013342,533.3032977724165,0.10002001128853434,0.03671541528543947,-0.006707877832135233,0.9896759692256227
7.555036691127418,540.3159616805526,0.10002989242156268,0.02262530639127434,0.0084387033899127,0.9532636686745432
7.565043362241494,547.0992366471305,0.10004174892181206,-0.00200023771375388,0.006797151963436359,0.9912201265065476
7.57505003335557,553.6145273317422,0.1000555803205834,0.022145197781499776,-0.02037936228367478,0.992832344710189
7.585056704469646,559.8247631655172,0.10007138607110802,0.008712649767323237,-0.03015146074078597,0.9511551893688207
7.595063375583722,565.6946092744914,0.10008916554856909,0.007669825107582399,-0.005049313920697397,0.9862101592832729
7.605070046697798,571.1906675272556,0.10010891805012653,-0.03093602112486899,0.005292136889207952,0.9777185503605043
7.615076717811874,576.2816665629705,0.1001306427949446,-0.0051143524769231875,0.013184895429968469,0.9534294652455058
7.62508338892595,580.9386397185168,0.10015433892422293,0.015927913857559053,-0.025802280906843885,0.9821809563462492
7.635090060040026,585.1350898424324,0.10018000550123031,-0.02875652292181219,-0.013777324551105745,0.9807052284648513
7.645096731154102,588.8471400578653,0.10020764151134189,0.004468837805443929,-0.04023074431623123,0.9888473765138734
7.655103402268178,592.0536696167428,0.10023724586207913,0.027994536762036035,0.02790115733070654,0.965424168679306
7.665110073382254,594.7364340721782,0.10026881738315313,-0.02928240045883751,0.010834878072788101,0.9969494018272309
7.67511674449633,596.880169085353,0.10030235482651076,0.006940495226269569,0.006327179017946486,0.9604078267004519
7.685123415610407,598.4726772762431,0.10033785686638408,0.03771027464997051,-0.031123591309706704,0.9598035834323999
7.695130086724483,599.5048976240242,0.10037532209934276,0.01247209864736127,0.02298933181405619,0.9903972526923868
7.7051367578385594,599.9709570222848,0.1004147490443495,-0.0022883583911703347,0.022027874273507133,0.9772405191032498
7.7151434289526355,599.8682036957078,0.10045613614281856,0.02672054960950679,0.01577143518092085,0.9701188624121194
7.7251501000667115,599.1972222880881,0.10049948175867753,0.004169347492186277,0.017164022801511795,0.9987472055914169
7.735156771180788,597.9618305358377,0.10054478417843178,0.017275645587725437,-0.029016487428593436,0.9627713562215083
7.745163442294864,596.169057545907,0.10059204161123236,-0.04526697655059325,0.01090176238154667,0.951396059398889
7.75517011340894,593.8291038017144,0.10064125218894676,0.005150598985548162,0.0507639647719211,1.012237952093997
7.765176784523016,590.9552831246424,0.10069241396623269,0.004629369229301711,-0.001756410712573728,0.974251285356112
7.775183455637092,587.5639469213261,0.10074552492061509,-0.019181984820813732,-0.005815715523105756,0.9567979393718753
7.785190126751168,583.6743911477528,0.10080058295256594,0.01864731334073253,0.02738650782490353,0.9806177524707168
7.795196797865244,579.3087465195205,0.10085758588558744,0.0030716900801450453,0.006193344694401156,0.9857080423425749
7.80520346897932,574.4918525929431,0.10091653146629789,0.01650383749609374,0.02911876937906811,0.9733569228440148
7.815210140093396,569.2511164334448,0.10097741736452084,-0.00835452245805318,0.010612983076053665,0.9660524024388806
7.825216811207472,563.6163566753945,0.10104024117337718,0.007817280993929743,-0.015665640322238324,0.9638977821653956
7.835223482321548,557.6196338606471,0.10110500040938031,0.0111594599276756,-0.009157977607067155,0.9887168911619727
7.845230153435624,551.2950680211189,0.1011716925125343,0.007346616602425048,0.009411960882171758,0.9245620470336798
7.8552368245497,544.6786445433232,0.10124031484643509,-0.012782518554187107,0.050519487799570585,0.9915541883977164
7.865243495663776,537.8080094194489,0.10131086469837472,-0.002623791654177202,-0.0065390527997600915,0.9731456334531663
7.875250166777852,530.7222550499539,0.10138333927944855,-0.025804836587751345,0.010686426788977906,0.9920418847597581
7.885256837891928,523.4616978164215,0.10145773572466549,-0.005512130655339654,-0.012688993097417764,0.9650799979842486
7.895263509006004,516.0676486902257,0.10153405109306134,0.0009313815496021692,-0.041852469932835465,0.9986118487395664
7.90527018012008,508.58217818220544,0.10161228236781492,0.03361108645441161,0.03321113273763249,0.9607486508445837
7.9152768512341565,501.047876970727,0.10169242645636745,-0.01644338454043159,0.04240275306941955,0.9785739889086698
7.9252835223482325,493.50761357010043,0.10177448019054472,-0.023552831324982437,-0.011439105747455906,0.9814138379719821
7.935290193462309,486.00429041818165,0.1018584403266824,-0.014262272110715957,-0.006944165015345531,0.9912934463160139
7.945296864576385,478.58059977094615,0.10194430354575418,0.03753181721735855,-0.017707105549249477,0.9626192247694745
7.955303535690461,471.2787807929584,0.10203206645350302,0.027799248410074293,0.01862656684472384,0.9609548600647531
7.965310206804537,464.14037922583174,0.10212172558057538,-0.012987364550416028,0.012248943236863074,0.9558789017970699
7.975316877918613,457.2060110021048,0.10221327738265827,0.009555924378550644,0.026567801822898196,0.9480669238628628
7.985323549032689,450.5151311495375,0.10230671824061943,0.0068063883256193084,-0.0029253787879985668,0.9595805698852092
7.995330220146765,444.1058093006891,0.10240204446065038,-0.001962032706651537,-0.0018479654396771148,0.9918993589488484
8.005336891260841,438.0145130850965,0.10249925227441237,0.01523825967204668,0.006117348627906812,0.9543379545415075
8.015343562374916,432.27590063649734,0.10259833783918547,0.040076485449321055,-0.005828766369563025,1.0058654860829135
8.025350233488993,426.9226233956764,0.10269929723802046,0.008935854257041444,-0.007470022733623731,0.9879310288949453
8.035356904603068,421.9851403309696,0.10280212647989348,0.03746020342997053,-0.016543081044230135,0.9678671519681292
8.045363575717145,417.4915446334327,0.10290682149986413,0.05127824547766406,0.005351166039255503,1.0061835494666544
8.05537024683122,413.4674038727808,0.1030133781592358,0.003809642949975673,0.01213926657525285,0.975597561579142
8.065376917945297,409.93561452354317,0.1031217922457196,0.0034411920247063438,-0.02455709738039721,0.9698094378970713
8.075383589059372,406.9162716891698,0.10323205947360062,0.02614183850791464,0.024303493372952522,0.9996895703553906
8.08539026017345,404.42655476531655,0.10334417548390756,0.0229008572714481,0.011471747555562474,0.9660416736259058
8.095396931287524,402.4806296928704,0.10345813584458483,0.02180375670253237,-0.007311562033512609,0.9783946095644352
8.105403602401601,401.08956835686354,0.10357393605066795,-0.02906685708900261,-0.041414424762801494,0.990745672280244
8.115410273515677,400.26128558988927,0.10369157152446154,-0.043815460184235246,-0.01107002794736439,0.9824524434820544
8.125416944629754,400.0004941384453,0.10381103761572025,-0.022166909280386556,0.03578080278024657,0.9506494172478894
8.135423615743829,400.3086778484458,0.10393232960183268,-0.010477310197131537,-0.021284490457211633,0.9742002186302174
8.145430286857906,401.1840832224647,0.10405544268800801,0.00018302541337711305,-0.004274847576157052,0.9933382112380029
8.15543695797198,402.6217293967494,0.10418037200746552,-0.00773549908369571,-0.011914210766538876,0.9715191278190108
8.165443629086058,404.61343648123886,0.10430711262162706,-0.008556528965429805,-0.01305320850839252,0.9784814586153563
8.175450300200133,407.14787210133557,0.10443565952031218,0.020046731001967313,0.008273067815700013,0.987222568601757
8.18545697131421,410.21061587662285,0.1045660076219363,-0.01416191619009308,0.01748853903730366,0.9663526870762368
8.195463642428285,413.7842414696487,0.10469815177371145,0.004192096039005152,0.012895493011016022,0.99079538639115
8.205470313542362,417.8484157379539,0.1048320867518501,-0.021887395204855754,-0.02901297556127997,0.9724833597213628
8.215476984656437,422.380014425166,0.10496780726177155,-0.013751854445699698,0.007843696479162787,0.9387630520244136
8.225483655770514,427.35325373293256,0.10510530793831138,-0.006458368611632406,0.024619595162257233,1.0192311750800176
8.23549032688459,432.7398370250475,0.10524458334593331,-0.014613926068649058,-0.013323875663976038,0.9672191070535061
8.245496997998666,438.50911582908316,0.1053856279789443,0.030428518196933606,-0.014343801185437422,0.9999683261093615
8.255503669112741,444.6282642194436,0.10552843626171209,-0.00636397464551403,-0.020987211901956866,1.0126209814250295
8.265510340226818,451.06246558965455,0.10567300254888556,0.016279965582295473,0.006683218176589152,0.9958152204262353
8.275517011340893,457.77511075118036,0.10581932112561804,-0.007123874081824795,-0.0187943124698721,1.0021923243698407
8.28552368245497,464.7280062316505,0.10596738620779309,-0.023109639740636127,-0.0019824176333461292,0.985738506045534
8.295530353569045,471.88159158729263,0.10611719194225316,-0.015033255405592217,0.022872243207000004,0.9824058882530804
8.305537024683122,479.19516449315796,0.10626873240703116,-0.022940944743803034,0.018232528993623775,0.9766550976491546
8.315543695797198,486.627112330372,0.10642200161158423,0.03161135483654524,0.026702112212197752,0.9723620859190658
8.325550366911274,494.1351489527787,0.1065769934970309,0.006469272043402975,-0.010965519328947473,0.9466910486641866
8.33555703802535,501.6765552857917,0.10673370193639026,-0.02465070313448476,-0.001516055795193909,0.9361659990831941
8.345563709139427,509.20842238852435,0.10689212073482457,-0.016432848668569013,0.02800472612448536,0.9380196435076618
8.355570380253502,516.6878955962056,0.10705224362988368,0.0041995043881114785,0.005672681356468142,0.9349225572586092
8.365577051367579,524.072418353792,0.10721406429175306,0.007918029011217272,0.001199312291077057,0.9804389330855569
8.375583722481654,531.319974353379,0.10737757632350363,0.02336683533715226,0.01852378764974961,0.9845936883046654
8.38559039359573,538.3893265977531,0.1075427732613449,0.014699336508934012,-0.006162550589487724,0.984264411384469
8.395597064709806,545.2402520298074,0.10770964857488034,0.00403466537922492,-0.013542380027141074,0.9699703064666513
8.405603735823883,551.8337703928912,0.10787819566736563,-0.009569223811885779,0.03100122637310444,0.9874009381595856
8.415610406937958,558.1323660198719,0.10804840787596937,0.026821471458079643,0.01167464915802552,0.9850963060490561
8.425617078052035,564.1002012890261,0.10822027847203647,0.006401222963092467,0.007799738748139744,1.0173309814071483
8.43562374916611,569.7033205322072,0.10839380066135418,-0.030091946822524227,-0.021050259650798497,0.9787604732632241
8.445630420280187,574.9098432351224,0.10856896758442074,0.042884068766768,-0.03287988793621601,0.9552592632188578
8.455637091394262,579.6901454304324,0.10874577231671625,0.0017591997349911356,-0.006450079759890492,1.0032308425812382
8.46564376250834,584.0170282516061,0.10892420786897689,0.02531687479805227,-0.03542047251375453,0.9664730934069709
8.475650433622414,587.8658726884717,0.1091042671874706,0.01800800889852605,-0.011342364503114395,0.9716408890974083
8.485657104736491,591.214779663971,0.1092859431542766,-0.022298434710230807,0.012803267193393817,0.9568506586193994
8.495663775850566,594.0446946350764,0.10946922858756611,0.01414934973091865,0.01524507736783844,0.9843537049700375
8.505670446964643,596.3395160089491,0.10965411624188684,0.019576608120942866,0.0033558282499870445,1.0007122713161616
8.515677118078719,598.0861867574516,0.10984059880844886,-0.005637526976686473,0.044239281927670786,0.9886191172593959
8.525683789192795,599.2747687087654,0.11002866891541405,-0.003509967235820168,-0.00354158656198636,0.9900847397106016
8.53569046030687,599.8984990933956,0.11021831912818712,-0.030817106312556814,-0.012828829929802697,0.9624366146462823
8.545697131420948,599.9538290228434,0.1104095419497097,-0.006405764933925965,-0.016954635539326225,0.9837986597070112
8.555703802535023,599.4404436819977,0.11060232982075663,0.009708946148905648,0.013611911581365837,0.960110431967529
8.5657104736491,598.3612641203645,0.11079667512023486,-0.015148210689274076,-0.002252892253322736,0.9731515706328343
8.575717144763175,596.7224306319382,0.11099257016548458,-0.014466325167192333,0.019764024907877847,0.9647656883115798
8.585723815877252,594.533267818282,0.11119000721258318,0.01620513387436387,-0.022269689192569827,0.9505601554041345
8.595730486991327,591.8062315335986,0.111388978456651,0.0007486476960535865,-0.005647564409459142,0.9360947129025315
8.605737158105404,588.5568380136625,0.11158947603216025,0.007830118058792458,0.03878984285974262,1.0079886751970877
8.615743829219479,584.8035755918587,0.11179149201324562,0.026933573255566917,0.01988564028312834,0.9922843454895043
8.625750500333556,580.5677995046342,0.1119950184140179,0.005590839089983668,0.015808405360218932,0.9827824020942105
8.635757171447631,575.8736103849108,0.11220004718887935,0.019857284738678708,0.007998067661561628,0.9663329603484042
8.645763842561708,570.7477171347898,0.11240657023284203,-0.024751179934230625,0.011593484484213943,0.99969609615727
8.655770513675783,565.2192849577843,0.11261457938184807,0.0030276969339887508,-0.007715591951494364,1.0149516722495409
8.66577718478986,559.3197694152308,0.11282406641309234,-0.004778778885871544,0.010298378564591317,0.9953906413556323
8.675783855903935,553.0827374510811,0.11303502304534763,0.014721584904725396,0.007118553362908909,1.0136999697240237
8.685790527018012,546.5436764033757,0.11324744093929198,-0.005806627583517781,0.03727758984671275,0.9556639490980176
8.695797198132087,539.7397920891209,0.1134613116978383,0.028434935165287986,-0.0062091246607116615,0.9869546764915501
8.705803869246164,532.7097971113683,0.11367662686646635,0.0023980011666807515,0.0005898558936981266,1.0162704138207697
8.71581054036024,525.4936905930457,0.11389337793355692,-0.016093802593489245,-0.002540517277929536,0.9883484199689255
8.725817211474316,518.1325305907469,0.11411155633072845,-0.017801245623843037,0.02684217771011455,0.9927177169663531
8.735823882588392,510.66820048344215,0.11433115343317538,-0.012012820594679315,0.03246314377489484,1.0246768902504362
8.745830553702469,503.143170665273,0.11455216056000964,-0.020985455306462654,0.0161677635630252,0.9944298455017107
8.755837224816544,495.60025689836647,0.11477456897460325,0.009428952672874342,0.004588938460280533,0.997978706021291
8.76584389593062,488.08237670057474,0.1149983698849342,-0.03763576930840434,0.003621531936941815,1.0113403582894172
8.775850567044696,480.6323051542613,0.1152235544439335,-0.007426229038634591,0.0036572937706068572,0.9705546465727001
8.785857238158773,473.29243152549196,0.11545011374983542,-0.022574198036172867,-0.001733109656896806,0.9825194508609243
8.795863909272848,466.10451807846476,0.115678038846529,-0.03115882412407433,0.025944397918863344,0.9751763635611225
8.805870580386925,459.1094624574064,0.11590732072391227,0.04065134822359432,-0.017640725298991557,0.999643214516089
8.815877251501,452.3470649880012,0.11613795031824836,-0.026906056715222757,3.6464257376731407e-05,0.9870268219790053
8.825883922615077,445.85580222229305,0.11636991851252391,-0.003403910661121886,-0.002767483244940583,1.004657714220769
8.835890593729152,439.6726080155887,0.1166032161368093,0.02128128507427613,-0.02277546397445005,0.9625820814424868
8.845897264843229,433.8326633809511,0.11683783396862135,-0.03303729037426887,0.013694295960493158,0.9810539704459819
8.855903935957304,428.36919631698674,0.11707376273328762,-0.014418436711205955,-0.005422255748849231,0.989788718159154
8.865910607071381,423.31329274784866,0.11731099310431345,0.005996235536779654,0.0020770968801021488,0.9681776116526288
8.875917278185456,418.69371965118256,0.11754951570375013,0.010895594302721405,-0.02349518971245609,1.0060413782357969
8.885923949299533,414.5367613803518,0.11778932110256618,-0.007741845599518784,0.009314940201834604,0.988202725876354
8.895930620413608,410.8660701122666,0.11803039982101954,-0.00739167317784557,0.04478666224617854,0.980363957261826
8.905937291527685,407.70253127169644,0.11827274232903282,0.0043437814765983395,0.0213756575177381,0.9734636324677374
8.91594396264176,405.06414469781214,0.11851633904656955,-0.027592133427966153,-0.012532035021760722,0.9798239043591732
8.925950633755837,402.9659222290602,0.11876118034401338,-0.028053729538306284,-0.014252850450250362,0.9810556957399269
8.935957304869913,401.4198022891126,0.11900725654254832,0.015412905865598578,-0.026765059928055397,0.9632473029348045
8.94596397598399,400.4345819598635,0.11925455791454159,0.02233268048378096,-0.005061437059634486,0.9624226265508935
8.955970647098065,400.01586692797184,0.11950307468392814,-0.008642025775644468,0.013038740910871885,0.9759245695222827
8.965977318212142,400.1660395897384,0.119752797026597,-0.038277757266773696,0.020200396268176157,0.9619897125068005
8.975983989326217,400.8842454957962,0.12000371507077973,0.007999809628108446,0.001418868982996617,0.9892413370466536
8.985990660440294,402.1663982127397,0.12025581889744076,0.0013724737711179244,0.013453002851710576,0.9920813554542685
8.995997331554369,404.00520257402854,0.12050909854066913,-0.00845371803384459,-0.019627300120733326,0.9755075257921537
9.006004002668446,406.39019618788154,0.120763543988073,0.013347206863268693,0.0006933037412526934,0.9602463229848881
9.016010673782521,409.30780896597804,0.12101914518117485,0.027667653617254016,0.010626709140827846,0.972709143267829
9.026017344896598,412.7414403342747,0.12127589201580968,0.00989312841839429,0.032227354295860974,0.9865186255740731
9.036024016010673,416.67155368661207,0.12153377434252392,0.004483758596524203,0.02333069740375265,0.9571606194548379
9.04603068712475,421.07578754370195,0.12179278196697711,-0.0043051119345695315,0.002574948443384382,0.9935687704291931
9.056037358238825,425.92908278501795,0.12205290465034443,-0.024183397289025323,0.01416357119469966,1.0079507328739472
9.066044029352902,431.20382522967486,0.12231413210972192,0.004530464357922849,-0.006555347018335869,0.9789214105706554
9.076050700466977,436.87000275502913,0.12257645401853261,0.015230607376728445,0.027565745606506757,1.0006561777111749
9.086057371581054,442.8953760590534,0.1228398600069349,0.005923618966756591,0.0013267590443807936,1.0189486618783807
9.09606404269513,449.24566209485664,0.12310433966223248,0.006741057323799125,0.04778683199243442,0.9530729892132708
9.106070713809206,455.88472913367383,0.12336988252928593,0.01388324326860007,-0.019212685206939827,0.9843451217315751
9.116077384923281,462.7748023464411,0.12363647811092597,-0.031276359083667736,-0.035568321075280455,0.9654600868965076
9.126084056037358,469.876678734258,0.12390411586836866,-0.0291407122069989,0.0029392470762248596,0.9529496819234772
9.136090727151434,477.1499501848066,0.12417278522163158,0.002227469783389896,0.02514428126048182,0.9926400961536488
9.14609739826551,484.5532333856222,0.12444247554995258,-0.02225688353863442,-0.0010199343515698094,0.962248749979431
9.156104069379586,492.04440528600895,0.12471317619220908,-0.0016942955390383042,0.017284969037081276,0.9738384935682718
9.166110740493663,499.5808427679396,0.12498487644734012,-0.009796572717737534,0.0037893302001658527,0.9745041749620198
9.176117411607738,507.1196651621914,0.12525756557476875,0.005952339039321134,0.02702868974205317,0.9626952837007445
9.186124082721815,514.6179782299215,0.12553123279482725,-0.018273466909258934,-0.005523905181616781,0.987095814833354
9.19613075383589,522.0331182214279,0.1258058672891826,0.020136739112502754,-0.01946266323933204,0.9806259559029482
9.206137424949967,529.322894623493,0.12608145820126482,-0.016437466325771553,-0.010545113439925568,1.0231129844520566
9.216144096064042,536.4458302141079,0.12635799463669556,0.000702657393378077,0.02724942615277552,0.9695894125486098
9.226150767178119,543.3613970587348,0.12663546566371908,0.007944572443940777,-0.019042251948021276,0.9716421973753331
9.236157438292194,550.0302471053185,0.12691386031363436,-0.004312651344899351,-0.028830176388389587,0.9911393950604246
9.246164109406271,556.4144360660462,0.1271931675812286,0.02459275639098328,-0.014925642212706425,0.9475973082508078
9.256170780520346,562.4776393119728,0.12747337642521234,-0.029995286932101295,0.07800997457708177,0.9737774725028001
9.266177451634423,568.1853585521753,0.1277544757686561,-0.02432606352006751,-0.02007638295797749,0.9794248961381038
9.276184122748498,573.5051181214152,0.1280364544994277,0.005710212008509406,0.024243611014658058,0.9870663887868066
9.286190793862575,578.4066497595298,0.12831930147063236,0.036617850509851196,0.0003609793513374526,1.0026118995525017
9.29619746497665,582.8620648311584,0.12860300550105253,0.005195227768314672,-0.007459681701402421,0.9872066634950593
9.306204136090727,586.8460130059383,0.12888755537559057,-0.008157717156625645,0.021233747956751984,0.9707423918716704
9.316210807204802,590.3358264962994,0.12917293984571154,-0.011803330345937618,-0.0002530562260081764,0.9915331014406875
9.32621747831888,593.3116490321847,0.12945914762988842,-0.0157404103860481,-0.003409071034985518,1.0083492465659767
9.336224149432955,595.7565488388489,0.12974616741404738,-0.034917395306398515,-0.013364517628170773,0.9808757481011002
9.346230820547031,597.6566149749315,0.1300339878520158,0.034279621975600715,-0.008537405588650567,0.9559458508367901
9.356237491661107,599.0010364826448,0.1303225975659703,0.009579643347360764,0.014131217660927406,0.9436207842256478
9.366244162775184,599.7821638997469,0.1306119851468866,0.008811100855727174,-0.00930047000190894,1.0148348943028977
9.376250833889259,599.9955527832931,0.1309021391549906,-0.01206685191753533,0.035548748254126454,0.9967753041677377
9.386257505003336,599.6399889975394,0.13119304812021065,0.00730679795238019,0.017224319133744698,0.9861970640376806
9.39626417611741,598.7174956221065,0.13148470054263078,0.02166446750514206,0.010591278314551993,0.9769962167359205
9.406270847231488,597.2333214411028,0.13177708489294565,-0.0004967328533615909,-0.005071355530883594,0.979411313286766
9.416277518345563,595.1959110786995,0.13207018961291578,0.04991643928619964,0.03098330426801323,1.0036796248466933
9.42628418945964,592.616856951077,0.13236400311582514,0.01499715270920424,-0.016367071928285813,0.9760536849609991
9.436290860573715,589.510833308134,0.1326585137869384,0.005196826281192459,0.004350954671232485,0.9550179493496929
9.446297531687792,585.8955127402323,0.13295370998396094,0.01221966782938537,-0.02183563520696599,0.9703548990833746
9.456304202801867,581.791465625059,0.1332495800374982,0.02232903673640148,0.03584947159966802,0.9631468412012089
9.466310873915944,577.222043086698,0.13354611225151783,-0.02074555276216776,-0.022625788702389845,0.9598951136108305
9.47631754503002,572.2132441328868,0.1338432949038112,0.029221923508453363,0.01811522696411669,0.9653598679419438
9.486324216144096,566.7935677263818,0.13414111624645755,-0.01655741388805116,0.01678321129164661,0.998492726372156
9.496330887258171,560.9938506321438,0.13443956450628794,0.0012565472315289436,-0.03105196515829272,0.9863211252296435
9.506337558372248,554.8470919629345,0.1347386278853508,0.023511021693161892,-0.008886212916736356,0.9978810077840995
9.516344229486323,548.3882654216353,0.13503829456137825,-0.004168263401740484,-0.0008446913321824689,0.9849699045382928
9.5263509006004,541.6541203085771,0.13533855268825354,-0.019273312384068122,0.021365576175675107,0.988222205408315
9.536357571714476,534.6829724261244,0.13563939039647924,0.015488507250449455,0.025724853349239456,0.9911539683477114
9.546364242828552,527.5144860701896,0.13594079579364668,-0.0008242134068509847,0.006844360791365323,0.9708010682189484
9.556370913942628,520.189448349136,0.13624275696490554,-0.0421012145974323,0.011227394107358821,0.9919835335780043
9.566377585056705,512.7495371141089,0.13654526197343564,0.003730636595750278,-0.031319057262260974,0.9463273758590004
9.57638425617078,505.23708382124653,0.13684829886091793,-0.01842143140506475,0.008121576588600599,0.9894468625685906
9.586390927284857,497.69483267501323,0.13715185564800808,0.001462466582913448,0.016710717192670352,0.9694239099898369
9.596397598398932,490.1656974231009,0.13745592033480927,0.005734627560970943,-0.03078752950916405,0.9682141145733438
9.606404269513009,482.69251718664486,0.13776048090134727,-0.021285435922249987,0.032203315963887175,0.9881078924628757
9.616410940627084,475.3178127150775,0.1380655253080448,-0.012542240317712236,-0.004257097237520719,0.9939556536242417
9.62641761174116,468.0835444524105,0.13837104149619833,0.022579098654596303,0.016142178068717372,0.9901488691920474
9.636424282855236,461.0308737915676,0.1386770173884541,-0.03690036289344905,0.012257687835291797,0.9906561161854889
9.646430953969313,454.1999288751136,0.13898344088928585,-0.015173670721916444,-0.007941888657474168,0.9704566284635123
9.656437625083388,447.6295762749709,0.13929029988547292,-0.005997658108342595,0.007519850787853435,1.0019084089450654
9.666444296197465,441.35719985018176,0.13959758224657914,-0.010928049666828848,0.015058978645091162,1.0057181955283898
9.67645096731154,435.4184880409869,0.13990527582543216,-0.0054968498916502925,-0.016859223706652177,0.9997082523426288
9.686457638425617,429.8472308094574,0.14021336845860408,-0.004824045903039452,-0.03588536260945924,0.9783049662385263
9.696464309539692,424.67512738206096,0.1405218479668916,0.012235525446209723,-0.0011806589045676435,0.9570595301501741
9.70647098065377,419.93160588803664,0.1408307021557983,-0.0022469373254127806,-0.0025468482936031444,0.9741962261816998
9.716477651767844,415.6436559198327,0.1411399188160158,-0.04159670588265246,0.009091498338754096,0.9809586153641966
9.726484322881921,411.8356749682583,0.14144948572390736,-0.01955318221550719,-0.02171155158867869,0.972408681186037
9.736490993995996,408.5293296061446,0.14175939064199017,-0.0009152032591182907,-0.006436848084071165,0.9961145497144769
9.746497665110073,405.7434322103116,0.14206962131941994,0.010823982998695967,-0.03514205236798532,0.9466696844130518
9.756504336224149,403.49383392329224,0.1423801654924744,0.02936925058943693,0.005621783843573975,0.9854469437859286
9.766511007338226,401.7933344638202,0.14269101088503883,0.012010239902963633,0.016285068584413545,0.9685952000340481
9.7765176784523,400.6516092992508,0.14300214520909083,-0.010736590201327745,0.02542684390383452,0.9987172437111186
9.786524349566378,400.07515459428197,0.14331355616518626,0.019049372868843988,0.01886436330478448,1.0044627255295677
9.796531020680453,400.06725024920945,0.14362523144294556,0.012064874587403523,-0.0017737172751282624,0.9873431768519599
9.80653769179453,400.62794123801575,0.14393715872154011,-0.03833179931771709,-0.01924301496139507,0.9606600780956704
9.816544362908605,401.75403735247767,0.14424932567017956,-0.01579792696265414,-0.007407815756176437,0.9438848060326968
9.826551034022682,403.43913135374976,0.14456171994859923,-0.018670122047060422,-0.03914331534229778,0.9705735422723002
9.836557705136757,405.6736354281401,0.14487432920754764,-0.01617618971772689,0.015767090603694495,1.0099316894888541
9.846564376250834,408.44483573966073,0.14518714108927525,-0.010716239607879693,0.010186256289522654,0.9908905537623692
9.856571047364909,411.7369647689516,0.14550014322802224,0.025531370661763905,0.0034149643335319876,0.9636425626645284
9.866577718478986,415.5312910269938,0.14581332325050816,-0.002102053305938776,-0.030040607961384077,1.0078319867668961
9.876584389593061,419.8062256331551,0.1461266687764203,0.006617125704885671,0.005462978182593892,0.9717415098640908
9.886591060707138,424.53744515116864,0.14644016741890367,0.004443206049511975,-0.018217056947595962,0.90958375356562
9.896597731821213,429.6980299841216,0.14675380678505034,0.01049505936631161,0.0220203369437352,0.9742003792722316
9.90660440293529,435.2586175410404,0.1470675744763894,-0.0309573290243441,-0.0351992017076809,0.9687035671550284
9.916611074049365,441.1875693035535,0.14738145808937722,-0.018568477340086133,-0.026920501285925536,0.9951838658827071
9.926617745163442,447.4511508421067,0.14769544521588754,-0.0007511372042288985,-0.007365182962650142,0.9522833209353118
9.936624416277517,454.01372375742335,0.14800952344370222,0.001978590018108725,0.05224422540073539,0.9532440363174401
9.946631087391594,460.83794845515683,0.14832368035700183,0.01806490825964428,0.007324760864877154,0.9758839957741324
9.95663775850567,467.8849965999489,0.1486379035368562,-0.0020633264269231,-0.0021998477623509306,0.9509962698177938
9.966644429619747,475.1147720401102,0.1489521805617159,0.03582765877463714,-0.0059018017361935895,0.9636589608947226
9.976651100733822,482.48613894588857,0.14926649900790265,-0.012582768138326665,0.0007550862690787033,0.9798089460047753
9.986657771847899,489.95715586328515,0.14958084645010103,0.0013866389819604513,0.01477361960199821,0.9972027797990722
9.996664442961974,497.4853143516793,0.14989521046184906,0.026750406090936645,-0.010368133573811934,1.003782455873129
10.00667111407605,505.02778084750355,0.1502095786160301,-0.015146209267856307,0.019002043340221444,0.9543151230414235
10.016677785190126,512.5416403777757,0.1505239384853634,-0.0010008261259662839,0.03427824815629724,0.9340026719338936
10.026684456304203,519.9841407368474,0.15083827764289603,-0.0036842150227254455,0.008529491860782402,1.0042222178397804
10.036691127418278,527.3129357370351,0.15115258366249365,0.03667283656900076,0.029190950031304657,0.9569454864606245
10.046697798532355,534.4863261491054,0.15146684411933192,-0.039659342803809734,0.0622992692353938,0.9707222287590034
10.05670446964643,541.4634969616945,0.15178104659038763,-0.01864718807536803,0.030587325103062148,0.9817072203157536
10.066711140760507,548.2047496097457,0.15209517865492986,-0.003459369702636565,-0.01990728809668204,0.9795377695272537
10.076717811874582,554.671727850583,0.15240922789501082,-0.05954931280707523,0.01600560675604112,0.9909772100308778
10.086724482988659,560.8276360025022,0.15272318189595704,0.020586857821666204,-0.016531968185952674,0.9981019269653868
10.096731154102734,566.6374483040796,0.15303702824685972,0.059266690275498024,-0.03705801216838281,1.0176590733791413
10.106737825216811,572.0681082030496,0.1533507545410658,-0.02044828010027149,-0.038503900797855824,0.9975265253683461
10.116744496330886,577.0887164407984,0.1536643483766679,0.006973193252075841,-0.013884111984049922,1.0042077078229668
10.126751167444963,581.6707068623433,0.15397779735699518,0.019308856015896134,-0.00637721805527525,1.0057888719889962
10.136757838559038,585.7880089514608,0.15429108909110278,-0.015089018379492081,0.025677330283128196,0.9863306732759378
10.146764509673115,589.4171961661842,0.15460421119426218,0.0013424629204704661,0.001704648392185765,0.9793049789719329
10.15677118078719,592.537619230662,0.1549171512884503,-0.017840852959487428,-0.03494253585952993,0.9773872543863114
10.166777851901267,595.1315236249951,0.1552298970028393,-0.029044475156938112,0.007746677816587638,0.9840459574944458
10.176784523015343,597.1841506045374,0.15554243597428513,-0.01518804469131867,-0.0021892555983586935,0.9811928922522373
10.18679119412942,598.6838211739093,0.1558547558478167,0.013755552562287957,-0.019819316977351686,0.956659516872949
